"","V1","subid","trial.num","context.condition","item","response","correct","rt","text.condition","image.condition"
"1",NA,325,1,"0","backpacks",TRUE,1,2380,"lexical","nothing"
"2",NA,325,2,"0","scissors",FALSE,1,1764,"lexical","item"
"3",NA,325,3,"0","presents",TRUE,1,1513,"lexical","nothing"
"4",NA,325,4,"0","dolls",TRUE,1,1482,"plural","item"
"5",NA,325,5,"0","rainboots",FALSE,1,1544,"plural","nothing"
"6",NA,325,6,"0","fish",TRUE,1,1041,"plural","item"
"7",NA,325,7,"0","guitars",FALSE,1,1301,"lexical","item"
"8",NA,325,8,"0","envelopes",TRUE,1,1851,"lexical","nothing"
"9",NA,325,9,"0","coffee",TRUE,1,1348,"plural","item"
"10",NA,325,10,"0","mittens",FALSE,1,1223,"lexical","item"
"11",NA,325,11,"0","daisies",TRUE,1,1449,"lexical","nothing"
"12",NA,325,12,"0","bears",TRUE,1,1503,"lexical","nothing"
"13",NA,325,13,"0","dogs",TRUE,1,1462,"plural","item"
"14",NA,325,14,"0","beach balls",FALSE,1,1785,"lexical","item"
"15",NA,325,15,"0","bananas",TRUE,1,1653,"lexical","nothing"
"16",NA,325,16,"0","trumpets",FALSE,1,1442,"lexical","item"
"17",NA,325,17,"0","spoons",TRUE,1,1088,"lexical","nothing"
"18",NA,325,18,"0","lollipops",FALSE,1,1019,"lexical","item"
"19",NA,325,19,"0","balloons",FALSE,1,1459,"plural","nothing"
"20",NA,325,20,"0","flashlights",FALSE,1,2132,"plural","nothing"
"21",NA,325,21,"0","notebooks",TRUE,1,1325,"plural","item"
"22",NA,325,22,"0","pencils",FALSE,1,1360,"lexical","item"
"23",NA,325,23,"0","buckets",TRUE,1,1490,"lexical","nothing"
"24",NA,325,24,"0","salads",TRUE,1,1242,"plural","item"
"25",NA,325,25,"0","plants",FALSE,1,1252,"lexical","item"
"26",NA,325,26,"0","cakes",FALSE,1,1577,"plural","nothing"
"27",NA,325,27,"0","apples",TRUE,1,1072,"plural","item"
"28",NA,325,28,"0","purses",FALSE,1,1091,"lexical","item"
"29",NA,325,29,"0","carrots",FALSE,1,1720,"plural","nothing"
"30",NA,325,30,"0","kites",TRUE,1,933,"plural","item"
"31",NA,325,31,"0","cookies",FALSE,1,1164,"lexical","item"
"32",NA,325,32,"0","crayons",FALSE,1,1563,"plural","nothing"
"33",NA,325,33,"0","baskets",FALSE,1,1263,"plural","nothing"
"34",NA,325,34,"0","cars",TRUE,1,1550,"lexical","nothing"
"35",NA,325,35,"0","shovels",FALSE,1,950,"plural","nothing"
"36",NA,325,36,"0","tennis balls",FALSE,1,1182,"plural","nothing"
"37",NA,325,37,"0","keys",TRUE,1,995,"plural","item"
"38",NA,325,38,"0","donuts",TRUE,1,931,"plural","item"
"39",NA,325,39,"0","pie",FALSE,1,1127,"lexical","item"
"40",NA,325,40,"0","bows",FALSE,1,1777,"plural","nothing"
"41",NA,325,41,"0","ice cream",TRUE,1,1139,"lexical","nothing"
"42",NA,325,42,"0","cats",TRUE,1,1433,"lexical","nothing"
"43",NA,325,43,"0","phones",FALSE,1,1283,"plural","nothing"
"44",NA,325,44,"0","oranges",FALSE,1,1831,"plural","nothing"
"45",NA,325,45,"0","flowers",TRUE,1,1509,"plural","item"
"46",NA,325,46,"0","bowls",TRUE,1,751,"plural","item"
"47",NA,325,47,"0","forks",FALSE,0,968,"lexical","nothing"
"48",NA,325,48,"0","umbrellas",FALSE,1,1262,"lexical","item"
"49",NA,92,1,"1","donuts",TRUE,1,1615,"lexical","nothing"
"50",NA,92,2,"1","forks",TRUE,1,1754,"lexical","nothing"
"51",NA,92,3,"1","fish",TRUE,1,1531,"plural","item"
"52",NA,92,4,"1","cookies",TRUE,1,1753,"lexical","nothing"
"53",NA,92,5,"1","crayons",TRUE,1,1848,"lexical","nothing"
"54",NA,92,6,"1","pencils",TRUE,1,1728,"plural","item"
"55",NA,92,7,"1","cats",FALSE,1,2294,"lexical","item"
"56",NA,92,8,"1","plants",FALSE,1,1861,"plural","nothing"
"57",NA,92,9,"1","coffee",FALSE,1,2417,"lexical","item"
"58",NA,92,10,"1","keys",TRUE,1,1763,"lexical","nothing"
"59",NA,92,11,"1","spoons",TRUE,1,1967,"plural","item"
"60",NA,92,12,"1","notebooks",TRUE,1,2492,"plural","item"
"61",NA,92,13,"1","scissors",TRUE,1,1985,"plural","item"
"62",NA,92,14,"1","beach balls",FALSE,1,1588,"plural","nothing"
"63",NA,92,15,"1","backpacks",TRUE,1,1493,"plural","item"
"64",NA,92,16,"1","balloons",TRUE,1,1863,"lexical","nothing"
"65",NA,92,17,"1","dogs",FALSE,1,1978,"plural","nothing"
"66",NA,92,18,"1","bears",TRUE,1,1607,"plural","item"
"67",NA,92,19,"1","dolls",FALSE,1,1811,"lexical","item"
"68",NA,92,20,"1","cakes",FALSE,1,2203,"lexical","item"
"69",NA,92,21,"1","ice cream",FALSE,1,4725,"lexical","item"
"70",NA,92,22,"1","daisies",TRUE,1,3139,"lexical","nothing"
"71",NA,92,23,"1","tennis balls",TRUE,1,1629,"plural","item"
"72",NA,92,24,"1","shovels",FALSE,1,3862,"plural","nothing"
"73",NA,92,25,"1","flashlights",FALSE,1,2829,"lexical","item"
"74",NA,92,26,"1","buckets",TRUE,1,1133,"plural","item"
"75",NA,92,27,"1","baskets",FALSE,1,1266,"plural","nothing"
"76",NA,92,28,"1","salads",FALSE,1,1613,"lexical","item"
"77",NA,92,29,"1","flowers",TRUE,1,2394,"lexical","nothing"
"78",NA,92,30,"1","apples",FALSE,1,2237,"lexical","item"
"79",NA,92,31,"1","presents",FALSE,1,1564,"plural","nothing"
"80",NA,92,32,"1","phones",TRUE,1,2167,"lexical","nothing"
"81",NA,92,33,"1","umbrellas",FALSE,1,2822,"plural","nothing"
"82",NA,92,34,"1","cars",FALSE,1,1700,"plural","nothing"
"83",NA,92,35,"1","lollipops",TRUE,1,1261,"plural","item"
"84",NA,92,36,"1","mittens",TRUE,1,1585,"plural","item"
"85",NA,92,37,"1","trumpets",FALSE,1,1325,"plural","nothing"
"86",NA,92,38,"1","carrots",TRUE,1,1377,"lexical","nothing"
"87",NA,92,39,"1","guitars",FALSE,1,2338,"lexical","item"
"88",NA,92,40,"1","purses",FALSE,1,1812,"lexical","item"
"89",NA,92,41,"1","pie",FALSE,1,1505,"plural","nothing"
"90",NA,92,42,"1","bows",FALSE,1,1584,"lexical","item"
"91",NA,92,43,"1","bowls",FALSE,1,2777,"lexical","item"
"92",NA,92,44,"1","oranges",TRUE,1,2485,"lexical","nothing"
"93",NA,92,45,"1","envelopes",TRUE,1,1183,"plural","item"
"94",NA,92,46,"1","rainboots",TRUE,1,1771,"lexical","nothing"
"95",NA,92,47,"1","bananas",FALSE,1,2612,"plural","nothing"
"96",NA,92,48,"1","kites",FALSE,1,1193,"plural","nothing"
"97",NA,368,1,"1","apples",TRUE,1,1453,"lexical","nothing"
"98",NA,368,2,"1","fish",TRUE,1,1405,"lexical","nothing"
"99",NA,368,3,"1","bowls",FALSE,1,1110,"plural","nothing"
"100",NA,368,4,"1","kites",TRUE,1,1435,"lexical","nothing"
"101",NA,368,5,"1","cakes",FALSE,1,1702,"plural","nothing"
"102",NA,368,6,"1","bows",FALSE,1,1494,"lexical","item"
"103",NA,368,7,"1","rainboots",FALSE,1,1451,"plural","nothing"
"104",NA,368,8,"1","dogs",FALSE,1,1101,"plural","nothing"
"105",NA,368,9,"1","trumpets",TRUE,1,1017,"plural","item"
"106",NA,368,10,"1","purses",FALSE,1,1035,"lexical","item"
"107",NA,368,11,"1","salads",FALSE,1,1221,"plural","nothing"
"108",NA,368,12,"1","balloons",FALSE,1,930,"lexical","item"
"109",NA,368,13,"1","phones",FALSE,0,1135,"lexical","nothing"
"110",NA,368,14,"1","plants",FALSE,1,1362,"lexical","item"
"111",NA,368,15,"1","daisies",FALSE,1,1257,"lexical","item"
"112",NA,368,16,"1","dolls",FALSE,1,1895,"plural","nothing"
"113",NA,368,17,"1","ice cream",TRUE,1,1399,"plural","item"
"114",NA,368,18,"1","notebooks",FALSE,1,1818,"plural","nothing"
"115",NA,368,19,"1","coffee",TRUE,1,1199,"plural","item"
"116",NA,368,20,"1","flashlights",FALSE,1,1287,"plural","nothing"
"117",NA,368,21,"1","mittens",FALSE,1,793,"plural","nothing"
"118",NA,368,22,"1","oranges",FALSE,1,1138,"lexical","item"
"119",NA,368,23,"1","beach balls",FALSE,1,1161,"lexical","item"
"120",NA,368,24,"1","crayons",TRUE,1,1290,"plural","item"
"121",NA,368,25,"1","cookies",TRUE,1,1419,"lexical","nothing"
"122",NA,368,26,"1","cars",TRUE,1,849,"plural","item"
"123",NA,368,27,"1","tennis balls",TRUE,1,1063,"plural","item"
"124",NA,368,28,"1","shovels",TRUE,1,1178,"plural","item"
"125",NA,368,29,"1","umbrellas",FALSE,1,1232,"plural","nothing"
"126",NA,368,30,"1","backpacks",FALSE,1,940,"lexical","item"
"127",NA,368,31,"1","lollipops",TRUE,1,1254,"lexical","nothing"
"128",NA,368,32,"1","pie",TRUE,1,1281,"lexical","nothing"
"129",NA,368,33,"1","pencils",TRUE,1,1034,"plural","item"
"130",NA,368,34,"1","scissors",TRUE,1,1171,"plural","item"
"131",NA,368,35,"1","flowers",FALSE,1,1049,"lexical","item"
"132",NA,368,36,"1","bananas",FALSE,1,1201,"plural","nothing"
"133",NA,368,37,"1","spoons",TRUE,1,1495,"lexical","nothing"
"134",NA,368,38,"1","bears",TRUE,1,1664,"lexical","nothing"
"135",NA,368,39,"1","cats",TRUE,1,961,"plural","item"
"136",NA,368,40,"1","donuts",TRUE,1,810,"plural","item"
"137",NA,368,41,"1","presents",TRUE,1,1486,"lexical","nothing"
"138",NA,368,42,"1","baskets",FALSE,1,1177,"lexical","item"
"139",NA,368,43,"1","carrots",TRUE,1,1784,"lexical","nothing"
"140",NA,368,44,"1","forks",TRUE,1,673,"plural","item"
"141",NA,368,45,"1","keys",TRUE,1,1261,"lexical","nothing"
"142",NA,368,46,"1","guitars",FALSE,1,1568,"plural","nothing"
"143",NA,368,47,"1","envelopes",FALSE,1,1190,"lexical","item"
"144",NA,368,48,"1","buckets",FALSE,1,936,"lexical","item"
"145",NA,125,1,"1","umbrellas",TRUE,1,4513,"plural","item"
"146",NA,125,2,"1","buckets",TRUE,1,2019,"lexical","nothing"
"147",NA,125,3,"1","bananas",TRUE,1,2427,"lexical","nothing"
"148",NA,125,4,"1","lollipops",TRUE,1,2698,"lexical","nothing"
"149",NA,125,5,"1","carrots",FALSE,1,2346,"lexical","item"
"150",NA,125,6,"1","salads",TRUE,1,1639,"plural","item"
"151",NA,125,7,"1","scissors",FALSE,1,3479,"plural","nothing"
"152",NA,125,8,"1","flowers",TRUE,1,2104,"plural","item"
"153",NA,125,9,"1","coffee",TRUE,0,1649,"plural","nothing"
"154",NA,125,10,"1","tennis balls",FALSE,1,2193,"plural","nothing"
"155",NA,125,11,"1","beach balls",FALSE,1,1683,"lexical","item"
"156",NA,125,12,"1","cars",FALSE,1,1449,"lexical","item"
"157",NA,125,13,"1","bears",FALSE,1,1865,"plural","nothing"
"158",NA,125,14,"1","cakes",TRUE,1,4654,"lexical","nothing"
"159",NA,125,15,"1","trumpets",TRUE,1,1722,"lexical","nothing"
"160",NA,125,16,"1","mittens",FALSE,1,2130,"plural","nothing"
"161",NA,125,17,"1","envelopes",FALSE,1,1396,"lexical","item"
"162",NA,125,18,"1","pencils",FALSE,1,1136,"lexical","item"
"163",NA,125,19,"1","donuts",FALSE,1,1976,"lexical","item"
"164",NA,125,20,"1","spoons",TRUE,1,5716,"lexical","nothing"
"165",NA,125,21,"1","ice cream",FALSE,1,6792,"lexical","item"
"166",NA,125,22,"1","pie",TRUE,0,1748,"plural","nothing"
"167",NA,125,23,"1","rainboots",FALSE,1,4861,"plural","nothing"
"168",NA,125,24,"1","oranges",TRUE,1,1573,"plural","item"
"169",NA,125,25,"1","plants",FALSE,1,1312,"plural","nothing"
"170",NA,125,26,"1","guitars",TRUE,1,4118,"lexical","nothing"
"171",NA,125,27,"1","bowls",FALSE,1,1649,"lexical","item"
"172",NA,125,28,"1","kites",TRUE,1,3717,"lexical","nothing"
"173",NA,125,29,"1","flashlights",TRUE,1,1567,"lexical","nothing"
"174",NA,125,30,"1","balloons",FALSE,1,1336,"lexical","item"
"175",NA,125,31,"1","forks",TRUE,0,1057,"plural","nothing"
"176",NA,125,32,"1","shovels",FALSE,1,1828,"plural","nothing"
"177",NA,125,33,"1","crayons",TRUE,1,2643,"plural","item"
"178",NA,125,34,"1","daisies",FALSE,1,1453,"lexical","item"
"179",NA,125,35,"1","apples",FALSE,1,1325,"plural","nothing"
"180",NA,125,36,"1","baskets",FALSE,1,6941,"lexical","item"
"181",NA,125,37,"1","phones",TRUE,1,3829,"lexical","nothing"
"182",NA,125,38,"1","backpacks",TRUE,1,1525,"plural","item"
"183",NA,125,39,"1","dolls",TRUE,1,1386,"lexical","nothing"
"184",NA,125,40,"1","cats",FALSE,1,1463,"plural","nothing"
"185",NA,125,41,"1","purses",TRUE,1,1536,"plural","item"
"186",NA,125,42,"1","dogs",TRUE,1,5916,"plural","item"
"187",NA,125,43,"1","bows",TRUE,1,983,"plural","item"
"188",NA,125,44,"1","presents",TRUE,1,1924,"plural","item"
"189",NA,125,45,"1","fish",TRUE,1,1109,"plural","item"
"190",NA,125,46,"1","keys",TRUE,1,1269,"plural","item"
"191",NA,125,47,"1","notebooks",FALSE,1,1137,"lexical","item"
"192",NA,125,48,"1","cookies",TRUE,1,1475,"lexical","nothing"
"193",NA,232,1,"1","salads",FALSE,1,1527,"plural","nothing"
"194",NA,232,2,"1","cakes",TRUE,1,1275,"lexical","nothing"
"195",NA,232,3,"1","bowls",FALSE,1,1788,"plural","nothing"
"196",NA,232,4,"1","bows",TRUE,1,1410,"plural","item"
"197",NA,232,5,"1","presents",FALSE,1,1085,"plural","nothing"
"198",NA,232,6,"1","kites",FALSE,1,1017,"lexical","item"
"199",NA,232,7,"1","pencils",TRUE,1,1425,"plural","item"
"200",NA,232,8,"1","cars",TRUE,1,1033,"lexical","nothing"
"201",NA,232,9,"1","baskets",TRUE,1,938,"plural","item"
"202",NA,232,10,"1","bananas",FALSE,1,774,"plural","nothing"
"203",NA,232,11,"1","purses",FALSE,1,1345,"plural","nothing"
"204",NA,232,12,"1","pie",FALSE,1,943,"lexical","item"
"205",NA,232,13,"1","scissors",TRUE,1,1123,"plural","item"
"206",NA,232,14,"1","donuts",TRUE,1,1030,"lexical","nothing"
"207",NA,232,15,"1","notebooks",TRUE,1,963,"plural","item"
"208",NA,232,16,"1","balloons",TRUE,1,688,"plural","item"
"209",NA,232,17,"1","dogs",FALSE,1,1045,"plural","nothing"
"210",NA,232,18,"1","trumpets",FALSE,1,877,"lexical","item"
"211",NA,232,19,"1","dolls",FALSE,1,814,"plural","nothing"
"212",NA,232,20,"1","coffee",TRUE,1,1049,"lexical","nothing"
"213",NA,232,21,"1","carrots",TRUE,1,1142,"plural","item"
"214",NA,232,22,"1","guitars",FALSE,1,1037,"plural","nothing"
"215",NA,232,23,"1","shovels",FALSE,1,964,"lexical","item"
"216",NA,232,24,"1","buckets",TRUE,1,971,"lexical","nothing"
"217",NA,232,25,"1","bears",FALSE,1,1051,"lexical","item"
"218",NA,232,26,"1","rainboots",FALSE,1,1003,"plural","nothing"
"219",NA,232,27,"1","fish",FALSE,1,743,"lexical","item"
"220",NA,232,28,"1","mittens",TRUE,1,901,"plural","item"
"221",NA,232,29,"1","crayons",FALSE,1,704,"lexical","item"
"222",NA,232,30,"1","umbrellas",TRUE,1,1225,"plural","item"
"223",NA,232,31,"1","lollipops",TRUE,1,987,"lexical","nothing"
"224",NA,232,32,"1","backpacks",TRUE,1,963,"lexical","nothing"
"225",NA,232,33,"1","plants",FALSE,1,1217,"plural","nothing"
"226",NA,232,34,"1","apples",TRUE,1,1308,"lexical","nothing"
"227",NA,232,35,"1","flowers",TRUE,1,1027,"lexical","nothing"
"228",NA,232,36,"1","daisies",FALSE,1,903,"lexical","item"
"229",NA,232,37,"1","phones",TRUE,1,750,"lexical","nothing"
"230",NA,232,38,"1","cookies",FALSE,1,963,"plural","nothing"
"231",NA,232,39,"1","tennis balls",FALSE,1,1060,"lexical","item"
"232",NA,232,40,"1","envelopes",FALSE,1,736,"plural","nothing"
"233",NA,232,41,"1","forks",TRUE,1,868,"plural","item"
"234",NA,232,42,"1","beach balls",TRUE,1,1176,"lexical","nothing"
"235",NA,232,43,"1","spoons",FALSE,1,993,"lexical","item"
"236",NA,232,44,"1","flashlights",TRUE,1,952,"plural","item"
"237",NA,232,45,"1","keys",FALSE,1,1126,"lexical","item"
"238",NA,232,46,"1","ice cream",FALSE,1,944,"lexical","item"
"239",NA,232,47,"1","cats",TRUE,1,946,"plural","item"
"240",NA,232,48,"1","oranges",TRUE,1,867,"lexical","nothing"
"241",NA,26,1,"2","cats",TRUE,1,1710,"lexical","nothing"
"242",NA,26,2,"2","trumpets",FALSE,1,1835,"plural","nothing"
"243",NA,26,3,"2","shovels",TRUE,1,1468,"plural","item"
"244",NA,26,4,"2","forks",FALSE,1,1194,"lexical","item"
"245",NA,26,5,"2","phones",TRUE,1,2001,"plural","item"
"246",NA,26,6,"2","fish",FALSE,1,1348,"plural","nothing"
"247",NA,26,7,"2","coffee",TRUE,1,1352,"lexical","nothing"
"248",NA,26,8,"2","bows",TRUE,1,2141,"plural","item"
"249",NA,26,9,"2","beach balls",TRUE,1,2038,"lexical","nothing"
"250",NA,26,10,"2","lollipops",TRUE,1,1303,"plural","item"
"251",NA,26,11,"2","flowers",TRUE,1,1100,"plural","item"
"252",NA,26,12,"2","baskets",TRUE,1,1329,"lexical","nothing"
"253",NA,26,13,"2","guitars",TRUE,1,1091,"lexical","nothing"
"254",NA,26,14,"2","pencils",TRUE,1,1167,"lexical","nothing"
"255",NA,26,15,"2","salads",FALSE,1,1070,"plural","nothing"
"256",NA,26,16,"2","flashlights",TRUE,1,1505,"plural","item"
"257",NA,26,17,"2","rainboots",TRUE,1,1696,"plural","item"
"258",NA,26,18,"2","cakes",FALSE,1,908,"plural","nothing"
"259",NA,26,19,"2","purses",TRUE,1,1177,"lexical","nothing"
"260",NA,26,20,"2","bananas",FALSE,1,1026,"plural","nothing"
"261",NA,26,21,"2","daisies",TRUE,1,1029,"plural","item"
"262",NA,26,22,"2","mittens",TRUE,1,1163,"plural","item"
"263",NA,26,23,"2","envelopes",FALSE,1,1310,"lexical","item"
"264",NA,26,24,"2","spoons",FALSE,1,1349,"lexical","item"
"265",NA,26,25,"2","apples",TRUE,1,944,"plural","item"
"266",NA,26,26,"2","scissors",FALSE,1,1667,"lexical","item"
"267",NA,26,27,"2","dogs",TRUE,1,1013,"plural","item"
"268",NA,26,28,"2","donuts",FALSE,1,1182,"plural","nothing"
"269",NA,26,29,"2","ice cream",FALSE,1,1193,"lexical","item"
"270",NA,26,30,"2","backpacks",TRUE,1,956,"plural","item"
"271",NA,26,31,"2","tennis balls",TRUE,0,1537,"plural","nothing"
"272",NA,26,32,"2","presents",FALSE,1,1464,"plural","nothing"
"273",NA,26,33,"2","oranges",FALSE,1,2934,"lexical","item"
"274",NA,26,34,"2","bowls",FALSE,1,1024,"lexical","item"
"275",NA,26,35,"2","umbrellas",FALSE,0,1307,"lexical","nothing"
"276",NA,26,36,"2","crayons",TRUE,0,1629,"lexical","item"
"277",NA,26,37,"2","plants",FALSE,1,969,"lexical","item"
"278",NA,26,38,"2","cookies",FALSE,1,926,"plural","nothing"
"279",NA,26,39,"2","notebooks",FALSE,1,794,"plural","nothing"
"280",NA,26,40,"2","kites",TRUE,1,980,"lexical","nothing"
"281",NA,26,41,"2","cars",FALSE,1,982,"lexical","item"
"282",NA,26,42,"2","buckets",FALSE,1,1763,"plural","nothing"
"283",NA,26,43,"2","carrots",TRUE,1,781,"lexical","nothing"
"284",NA,26,44,"2","pie",FALSE,1,1193,"plural","nothing"
"285",NA,26,45,"2","dolls",TRUE,1,781,"lexical","nothing"
"286",NA,26,46,"2","bears",TRUE,0,912,"lexical","item"
"287",NA,26,47,"2","balloons",TRUE,1,896,"lexical","nothing"
"288",NA,26,48,"2","keys",FALSE,1,943,"lexical","item"
"289",NA,339,1,"2","cakes",FALSE,1,1778,"plural","nothing"
"290",NA,339,2,"2","scissors",FALSE,1,1761,"plural","nothing"
"291",NA,339,3,"2","ice cream",FALSE,1,1924,"lexical","item"
"292",NA,339,4,"2","bears",TRUE,1,1486,"plural","item"
"293",NA,339,5,"2","salads",TRUE,1,1899,"lexical","nothing"
"294",NA,339,6,"2","purses",FALSE,1,2036,"plural","nothing"
"295",NA,339,7,"2","oranges",TRUE,1,1370,"plural","item"
"296",NA,339,8,"2","cars",FALSE,1,1692,"lexical","item"
"297",NA,339,9,"2","envelopes",FALSE,1,1856,"plural","nothing"
"298",NA,339,10,"2","carrots",TRUE,1,2324,"lexical","nothing"
"299",NA,339,11,"2","lollipops",FALSE,1,1549,"lexical","item"
"300",NA,339,12,"2","flowers",TRUE,0,1587,"lexical","item"
"301",NA,339,13,"2","beach balls",FALSE,1,1634,"lexical","item"
"302",NA,339,14,"2","pencils",TRUE,1,1267,"lexical","nothing"
"303",NA,339,15,"2","bananas",TRUE,1,1559,"plural","item"
"304",NA,339,16,"2","trumpets",TRUE,1,1500,"plural","item"
"305",NA,339,17,"2","umbrellas",TRUE,0,1739,"plural","nothing"
"306",NA,339,18,"2","coffee",FALSE,1,1650,"plural","nothing"
"307",NA,339,19,"2","dogs",FALSE,1,2107,"lexical","item"
"308",NA,339,20,"2","kites",TRUE,1,1292,"lexical","nothing"
"309",NA,339,21,"2","mittens",FALSE,1,1364,"lexical","item"
"310",NA,339,22,"2","rainboots",FALSE,1,1940,"plural","nothing"
"311",NA,339,23,"2","plants",TRUE,0,2361,"lexical","item"
"312",NA,339,24,"2","donuts",FALSE,1,2012,"plural","nothing"
"313",NA,339,25,"2","fish",FALSE,1,1685,"plural","nothing"
"314",NA,339,26,"2","notebooks",TRUE,1,2109,"plural","item"
"315",NA,339,27,"2","shovels",TRUE,1,1068,"plural","item"
"316",NA,339,28,"2","cats",TRUE,1,706,"plural","item"
"317",NA,339,29,"2","bowls",TRUE,1,1148,"plural","item"
"318",NA,339,30,"2","guitars",TRUE,1,893,"plural","item"
"319",NA,339,31,"2","crayons",FALSE,1,1821,"lexical","item"
"320",NA,339,32,"2","cookies",TRUE,1,1252,"plural","item"
"321",NA,339,33,"2","phones",TRUE,1,2058,"lexical","nothing"
"322",NA,339,34,"2","tennis balls",FALSE,1,1196,"lexical","item"
"323",NA,339,35,"2","flashlights",TRUE,1,1309,"lexical","nothing"
"324",NA,339,36,"2","presents",TRUE,1,2002,"plural","item"
"325",NA,339,37,"2","dolls",FALSE,0,2820,"lexical","nothing"
"326",NA,339,38,"2","buckets",FALSE,1,1499,"plural","nothing"
"327",NA,339,39,"2","spoons",TRUE,1,1485,"lexical","nothing"
"328",NA,339,40,"2","daisies",TRUE,1,1499,"lexical","nothing"
"329",NA,339,41,"2","baskets",FALSE,1,1580,"lexical","item"
"330",NA,339,42,"2","backpacks",FALSE,1,1787,"lexical","item"
"331",NA,339,43,"2","keys",TRUE,1,1235,"lexical","nothing"
"332",NA,339,44,"2","pie",TRUE,1,1691,"plural","item"
"333",NA,339,45,"2","forks",TRUE,0,2539,"plural","nothing"
"334",NA,339,46,"2","balloons",TRUE,1,1901,"lexical","nothing"
"335",NA,339,47,"2","bows",TRUE,1,1443,"lexical","nothing"
"336",NA,339,48,"2","apples",FALSE,1,2027,"plural","nothing"
"337",NA,51,1,"2","beach balls",FALSE,1,1245,"plural","nothing"
"338",NA,51,2,"2","donuts",TRUE,1,1243,"lexical","nothing"
"339",NA,51,3,"2","presents",FALSE,1,1066,"lexical","item"
"340",NA,51,4,"2","bows",TRUE,1,1608,"lexical","nothing"
"341",NA,51,5,"2","pie",TRUE,1,857,"lexical","nothing"
"342",NA,51,6,"2","guitars",FALSE,0,825,"plural","item"
"343",NA,51,7,"2","cookies",TRUE,1,967,"plural","item"
"344",NA,51,8,"2","crayons",TRUE,1,858,"plural","item"
"345",NA,51,9,"2","buckets",FALSE,1,665,"plural","nothing"
"346",NA,51,10,"2","lollipops",FALSE,1,887,"plural","nothing"
"347",NA,51,11,"2","dogs",TRUE,1,777,"plural","item"
"348",NA,51,12,"2","salads",TRUE,1,777,"lexical","nothing"
"349",NA,51,13,"2","cakes",TRUE,0,696,"lexical","item"
"350",NA,51,14,"2","baskets",TRUE,1,889,"plural","item"
"351",NA,51,15,"2","shovels",FALSE,1,819,"lexical","item"
"352",NA,51,16,"2","daisies",FALSE,1,776,"lexical","item"
"353",NA,51,17,"2","forks",TRUE,1,887,"lexical","nothing"
"354",NA,51,18,"2","oranges",FALSE,1,1114,"plural","nothing"
"355",NA,51,19,"2","bowls",TRUE,1,886,"plural","item"
"356",NA,51,20,"2","purses",TRUE,1,824,"plural","item"
"357",NA,51,21,"2","balloons",FALSE,1,681,"lexical","item"
"358",NA,51,22,"2","rainboots",TRUE,1,937,"plural","item"
"359",NA,51,23,"2","trumpets",TRUE,1,887,"lexical","nothing"
"360",NA,51,24,"2","bananas",TRUE,1,730,"lexical","nothing"
"361",NA,51,25,"2","fish",FALSE,1,632,"lexical","item"
"362",NA,51,26,"2","cars",TRUE,1,664,"lexical","nothing"
"363",NA,51,27,"2","tennis balls",FALSE,1,841,"plural","nothing"
"364",NA,51,28,"2","ice cream",FALSE,1,1194,"plural","nothing"
"365",NA,51,29,"2","flashlights",FALSE,1,743,"plural","nothing"
"366",NA,51,30,"2","cats",FALSE,1,890,"plural","nothing"
"367",NA,51,31,"2","backpacks",TRUE,1,1082,"lexical","nothing"
"368",NA,51,32,"2","plants",FALSE,1,761,"plural","nothing"
"369",NA,51,33,"2","umbrellas",TRUE,1,695,"lexical","nothing"
"370",NA,51,34,"2","notebooks",TRUE,0,602,"plural","nothing"
"371",NA,51,35,"2","flowers",FALSE,1,775,"lexical","item"
"372",NA,51,36,"2","phones",FALSE,1,679,"lexical","item"
"373",NA,51,37,"2","apples",FALSE,1,682,"lexical","item"
"374",NA,51,38,"2","keys",FALSE,1,762,"lexical","item"
"375",NA,51,39,"2","coffee",TRUE,1,792,"plural","item"
"376",NA,51,40,"2","carrots",FALSE,1,809,"plural","nothing"
"377",NA,51,41,"2","spoons",FALSE,1,730,"plural","nothing"
"378",NA,51,42,"2","bears",TRUE,1,745,"plural","item"
"379",NA,51,43,"2","envelopes",TRUE,1,680,"lexical","nothing"
"380",NA,51,44,"2","mittens",TRUE,1,760,"plural","item"
"381",NA,51,45,"2","scissors",FALSE,1,1033,"lexical","item"
"382",NA,51,46,"2","pencils",FALSE,1,904,"lexical","item"
"383",NA,51,47,"2","kites",FALSE,0,728,"lexical","nothing"
"384",NA,51,48,"2","dolls",TRUE,1,679,"plural","item"
"385",NA,124,1,"2","carrots",TRUE,1,4031,"lexical","nothing"
"386",NA,124,2,"2","guitars",FALSE,1,8506,"lexical","item"
"387",NA,124,3,"2","salads",TRUE,1,954,"plural","item"
"388",NA,124,4,"2","oranges",FALSE,1,1243,"plural","nothing"
"389",NA,124,5,"2","bananas",FALSE,1,1598,"plural","nothing"
"390",NA,124,6,"2","spoons",FALSE,1,2127,"lexical","item"
"391",NA,124,7,"2","presents",TRUE,1,3934,"plural","item"
"392",NA,124,8,"2","scissors",FALSE,1,2513,"lexical","item"
"393",NA,124,9,"2","umbrellas",FALSE,1,964,"lexical","item"
"394",NA,124,10,"2","flowers",TRUE,1,1267,"lexical","nothing"
"395",NA,124,11,"2","backpacks",FALSE,1,840,"lexical","item"
"396",NA,124,12,"2","mittens",FALSE,1,2349,"lexical","item"
"397",NA,124,13,"2","pie",FALSE,1,2621,"lexical","item"
"398",NA,124,14,"2","forks",TRUE,1,2137,"lexical","nothing"
"399",NA,124,15,"2","rainboots",TRUE,1,1724,"lexical","nothing"
"400",NA,124,16,"2","bows",TRUE,1,1611,"lexical","nothing"
"401",NA,124,17,"2","cakes",FALSE,1,1684,"plural","nothing"
"402",NA,124,18,"2","cookies",TRUE,1,1774,"lexical","nothing"
"403",NA,124,19,"2","keys",TRUE,1,2302,"plural","item"
"404",NA,124,20,"2","beach balls",FALSE,1,2060,"plural","nothing"
"405",NA,124,21,"2","dolls",FALSE,1,3942,"lexical","item"
"406",NA,124,22,"2","bears",TRUE,0,2022,"lexical","item"
"407",NA,124,23,"2","notebooks",TRUE,1,4280,"plural","item"
"408",NA,124,24,"2","bowls",FALSE,1,5388,"plural","nothing"
"409",NA,124,25,"2","daisies",TRUE,1,3591,"plural","item"
"410",NA,124,26,"2","apples",FALSE,1,1182,"plural","nothing"
"411",NA,124,27,"2","crayons",FALSE,1,4174,"plural","nothing"
"412",NA,124,28,"2","phones",FALSE,1,3283,"plural","nothing"
"413",NA,124,29,"2","envelopes",TRUE,1,1688,"lexical","nothing"
"414",NA,124,30,"2","flashlights",TRUE,0,1253,"lexical","item"
"415",NA,124,31,"2","lollipops",TRUE,1,990,"plural","item"
"416",NA,124,32,"2","fish",TRUE,1,1091,"plural","item"
"417",NA,124,33,"2","cars",TRUE,1,3648,"lexical","nothing"
"418",NA,124,34,"2","donuts",TRUE,1,6796,"lexical","nothing"
"419",NA,124,35,"2","balloons",FALSE,1,4268,"plural","nothing"
"420",NA,124,36,"2","tennis balls",TRUE,1,2241,"plural","item"
"421",NA,124,37,"2","buckets",FALSE,1,1434,"plural","nothing"
"422",NA,124,38,"2","baskets",TRUE,1,893,"plural","item"
"423",NA,124,39,"2","coffee",FALSE,1,2309,"lexical","item"
"424",NA,124,40,"2","purses",TRUE,1,5134,"lexical","nothing"
"425",NA,124,41,"2","shovels",FALSE,1,1143,"plural","nothing"
"426",NA,124,42,"2","dogs",FALSE,1,1221,"plural","nothing"
"427",NA,124,43,"2","pencils",TRUE,1,1635,"plural","item"
"428",NA,124,44,"2","kites",TRUE,1,1401,"plural","item"
"429",NA,124,45,"2","plants",TRUE,1,2164,"lexical","nothing"
"430",NA,124,46,"2","ice cream",FALSE,1,3025,"lexical","item"
"431",NA,124,47,"2","cats",TRUE,1,1281,"lexical","nothing"
"432",NA,124,48,"2","trumpets",TRUE,1,2801,"plural","item"
"433",NA,299,1,"3","umbrellas",TRUE,1,3963,"lexical","nothing"
"434",NA,299,2,"3","flashlights",FALSE,1,3800,"plural","nothing"
"435",NA,299,3,"3","trumpets",FALSE,1,2711,"lexical","item"
"436",NA,299,4,"3","balloons",FALSE,1,4035,"lexical","item"
"437",NA,299,5,"3","cats",TRUE,1,2228,"lexical","nothing"
"438",NA,299,6,"3","salads",FALSE,0,5959,"plural","item"
"439",NA,299,7,"3","rainboots",FALSE,1,4469,"lexical","item"
"440",NA,299,8,"3","purses",TRUE,0,4206,"lexical","item"
"441",NA,299,9,"3","bananas",FALSE,0,2982,"lexical","nothing"
"442",NA,299,10,"3","cakes",FALSE,1,5360,"lexical","item"
"443",NA,299,11,"3","presents",FALSE,1,5411,"plural","nothing"
"444",NA,299,12,"3","apples",FALSE,1,9620,"plural","nothing"
"445",NA,299,13,"3","pencils",FALSE,1,3030,"lexical","item"
"446",NA,299,14,"3","plants",TRUE,1,5668,"lexical","nothing"
"447",NA,299,15,"3","donuts",FALSE,0,3442,"plural","item"
"448",NA,299,16,"3","ice cream",TRUE,1,4426,"lexical","nothing"
"449",NA,299,17,"3","shovels",FALSE,1,8113,"plural","nothing"
"450",NA,299,18,"3","kites",TRUE,1,2967,"plural","item"
"451",NA,299,19,"3","mittens",TRUE,1,2898,"lexical","nothing"
"452",NA,299,20,"3","guitars",TRUE,1,2547,"lexical","nothing"
"453",NA,299,21,"3","cars",TRUE,1,2021,"lexical","nothing"
"454",NA,299,22,"3","beach balls",FALSE,0,3045,"plural","item"
"455",NA,299,23,"3","phones",FALSE,1,3637,"lexical","item"
"456",NA,299,24,"3","dogs",FALSE,0,4324,"plural","item"
"457",NA,299,25,"3","crayons",TRUE,1,4690,"plural","item"
"458",NA,299,26,"3","flowers",FALSE,1,4035,"lexical","item"
"459",NA,299,27,"3","notebooks",TRUE,1,5894,"plural","item"
"460",NA,299,28,"3","scissors",FALSE,1,4388,"plural","nothing"
"461",NA,299,29,"3","backpacks",FALSE,1,3604,"lexical","item"
"462",NA,299,30,"3","bows",TRUE,0,5315,"lexical","item"
"463",NA,299,31,"3","buckets",FALSE,1,4696,"plural","nothing"
"464",NA,299,32,"3","fish",TRUE,0,3876,"plural","nothing"
"465",NA,299,33,"3","tennis balls",FALSE,1,3495,"plural","nothing"
"466",NA,299,34,"3","oranges",TRUE,1,4038,"plural","item"
"467",NA,299,35,"3","dolls",TRUE,1,3605,"plural","item"
"468",NA,299,36,"3","carrots",FALSE,1,4342,"lexical","item"
"469",NA,299,37,"3","cookies",TRUE,1,3878,"lexical","nothing"
"470",NA,299,38,"3","keys",TRUE,1,4901,"plural","item"
"471",NA,299,39,"3","coffee",FALSE,1,5968,"plural","nothing"
"472",NA,299,40,"3","forks",TRUE,1,4554,"plural","item"
"473",NA,299,41,"3","spoons",FALSE,1,2924,"plural","nothing"
"474",NA,299,42,"3","daisies",TRUE,1,3383,"lexical","nothing"
"475",NA,299,43,"3","pie",FALSE,1,5296,"plural","nothing"
"476",NA,299,44,"3","bears",FALSE,1,5189,"lexical","item"
"477",NA,299,45,"3","lollipops",FALSE,1,3650,"plural","nothing"
"478",NA,299,46,"3","bowls",TRUE,1,2745,"plural","item"
"479",NA,299,47,"3","envelopes",TRUE,1,3590,"lexical","nothing"
"480",NA,299,48,"3","baskets",TRUE,1,3080,"lexical","nothing"
"481",NA,36,1,"3","cookies",FALSE,1,1873,"plural","nothing"
"482",NA,36,2,"3","dolls",FALSE,1,1370,"plural","nothing"
"483",NA,36,3,"3","bananas",TRUE,1,1279,"plural","item"
"484",NA,36,4,"3","notebooks",FALSE,1,1550,"lexical","item"
"485",NA,36,5,"3","oranges",FALSE,1,1230,"plural","nothing"
"486",NA,36,6,"3","umbrellas",TRUE,1,985,"plural","item"
"487",NA,36,7,"3","cats",FALSE,1,1013,"lexical","item"
"488",NA,36,8,"3","lollipops",FALSE,1,1009,"lexical","item"
"489",NA,36,9,"3","bowls",TRUE,1,1374,"plural","item"
"490",NA,36,10,"3","beach balls",FALSE,1,1112,"lexical","item"
"491",NA,36,11,"3","phones",FALSE,1,901,"lexical","item"
"492",NA,36,12,"3","kites",TRUE,1,1308,"lexical","nothing"
"493",NA,36,13,"3","carrots",TRUE,1,1081,"plural","item"
"494",NA,36,14,"3","dogs",FALSE,1,1028,"lexical","item"
"495",NA,36,15,"3","crayons",FALSE,1,953,"lexical","item"
"496",NA,36,16,"3","cars",TRUE,0,1196,"plural","nothing"
"497",NA,36,17,"3","presents",FALSE,1,1028,"plural","nothing"
"498",NA,36,18,"3","envelopes",TRUE,1,1074,"lexical","nothing"
"499",NA,36,19,"3","flashlights",TRUE,1,1978,"lexical","nothing"
"500",NA,36,20,"3","pencils",TRUE,1,1005,"lexical","nothing"
"501",NA,36,21,"3","ice cream",FALSE,1,979,"lexical","item"
"502",NA,36,22,"3","backpacks",FALSE,1,1085,"plural","nothing"
"503",NA,36,23,"3","salads",FALSE,1,1068,"plural","nothing"
"504",NA,36,24,"3","forks",TRUE,1,1366,"plural","item"
"505",NA,36,25,"3","pie",FALSE,1,991,"lexical","item"
"506",NA,36,26,"3","coffee",TRUE,1,946,"plural","item"
"507",NA,36,27,"3","purses",FALSE,1,1100,"lexical","item"
"508",NA,36,28,"3","trumpets",FALSE,1,1272,"plural","nothing"
"509",NA,36,29,"3","apples",FALSE,1,1013,"lexical","item"
"510",NA,36,30,"3","bows",TRUE,1,1273,"lexical","nothing"
"511",NA,36,31,"3","mittens",TRUE,1,1035,"plural","item"
"512",NA,36,32,"3","donuts",FALSE,0,866,"lexical","nothing"
"513",NA,36,33,"3","guitars",TRUE,1,882,"plural","item"
"514",NA,36,34,"3","flowers",TRUE,1,847,"plural","item"
"515",NA,36,35,"3","baskets",TRUE,1,982,"lexical","nothing"
"516",NA,36,36,"3","bears",FALSE,1,1135,"plural","nothing"
"517",NA,36,37,"3","daisies",FALSE,1,5910,"lexical","item"
"518",NA,36,38,"3","balloons",TRUE,1,1195,"lexical","nothing"
"519",NA,36,39,"3","shovels",FALSE,1,1040,"plural","nothing"
"520",NA,36,40,"3","fish",TRUE,1,1617,"lexical","nothing"
"521",NA,36,41,"3","spoons",FALSE,1,988,"plural","nothing"
"522",NA,36,42,"3","scissors",TRUE,1,1099,"plural","item"
"523",NA,36,43,"3","tennis balls",TRUE,1,1037,"plural","item"
"524",NA,36,44,"3","buckets",FALSE,0,847,"plural","item"
"525",NA,36,45,"3","cakes",TRUE,1,1362,"lexical","nothing"
"526",NA,36,46,"3","rainboots",FALSE,1,1684,"plural","nothing"
"527",NA,36,47,"3","plants",TRUE,1,1741,"lexical","nothing"
"528",NA,36,48,"3","keys",TRUE,1,1561,"lexical","nothing"
"529",NA,202,1,"3","fish",TRUE,0,1679,"plural","nothing"
"530",NA,202,2,"3","daisies",FALSE,1,1791,"plural","nothing"
"531",NA,202,3,"3","shovels",TRUE,1,1178,"plural","item"
"532",NA,202,4,"3","envelopes",FALSE,0,1810,"lexical","nothing"
"533",NA,202,5,"3","pencils",TRUE,1,1826,"lexical","nothing"
"534",NA,202,6,"3","mittens",FALSE,1,2285,"plural","nothing"
"535",NA,202,7,"3","dolls",FALSE,1,983,"plural","nothing"
"536",NA,202,8,"3","guitars",TRUE,0,1145,"lexical","item"
"537",NA,202,9,"3","beach balls",TRUE,1,1442,"lexical","nothing"
"538",NA,202,10,"3","cookies",TRUE,1,1333,"lexical","nothing"
"539",NA,202,11,"3","umbrellas",FALSE,1,1366,"lexical","item"
"540",NA,202,12,"3","lollipops",FALSE,1,1875,"lexical","item"
"541",NA,202,13,"3","bowls",FALSE,1,1141,"lexical","item"
"542",NA,202,14,"3","flashlights",TRUE,1,1578,"plural","item"
"543",NA,202,15,"3","cakes",FALSE,1,1641,"plural","nothing"
"544",NA,202,16,"3","salads",TRUE,1,2317,"plural","item"
"545",NA,202,17,"3","crayons",FALSE,1,1456,"lexical","item"
"546",NA,202,18,"3","presents",FALSE,1,1234,"plural","nothing"
"547",NA,202,19,"3","flowers",FALSE,1,727,"lexical","item"
"548",NA,202,20,"3","tennis balls",TRUE,1,4799,"lexical","nothing"
"549",NA,202,21,"3","dogs",FALSE,1,1123,"plural","nothing"
"550",NA,202,22,"3","baskets",FALSE,1,1085,"plural","nothing"
"551",NA,202,23,"3","bananas",TRUE,1,3632,"lexical","nothing"
"552",NA,202,24,"3","pie",TRUE,1,1468,"lexical","nothing"
"553",NA,202,25,"3","rainboots",TRUE,1,2257,"lexical","nothing"
"554",NA,202,26,"3","cars",FALSE,1,2519,"lexical","item"
"555",NA,202,27,"3","phones",TRUE,1,1668,"plural","item"
"556",NA,202,28,"3","donuts",TRUE,1,3679,"lexical","nothing"
"557",NA,202,29,"3","buckets",FALSE,1,2179,"lexical","item"
"558",NA,202,30,"3","spoons",TRUE,1,1944,"lexical","nothing"
"559",NA,202,31,"3","oranges",FALSE,0,1702,"plural","item"
"560",NA,202,32,"3","plants",FALSE,0,5516,"lexical","nothing"
"561",NA,202,33,"3","ice cream",TRUE,0,2390,"lexical","item"
"562",NA,202,34,"3","purses",FALSE,1,950,"lexical","item"
"563",NA,202,35,"3","coffee",TRUE,1,1335,"plural","item"
"564",NA,202,36,"3","carrots",TRUE,1,2465,"plural","item"
"565",NA,202,37,"3","keys",FALSE,1,1273,"plural","nothing"
"566",NA,202,38,"3","scissors",FALSE,1,1651,"lexical","item"
"567",NA,202,39,"3","trumpets",TRUE,1,5690,"plural","item"
"568",NA,202,40,"3","backpacks",TRUE,0,1755,"plural","nothing"
"569",NA,202,41,"3","bears",TRUE,1,1150,"plural","item"
"570",NA,202,42,"3","forks",FALSE,1,1440,"plural","nothing"
"571",NA,202,43,"3","bows",TRUE,1,3203,"plural","item"
"572",NA,202,44,"3","notebooks",TRUE,1,2263,"plural","item"
"573",NA,202,45,"3","kites",TRUE,0,4174,"plural","nothing"
"574",NA,202,46,"3","cats",TRUE,1,3838,"plural","item"
"575",NA,202,47,"3","apples",FALSE,0,1817,"lexical","nothing"
"576",NA,202,48,"3","balloons",TRUE,0,2223,"lexical","item"
"577",NA,189,1,"2","tennis balls",TRUE,1,4226,"plural","item"
"578",NA,189,2,"2","daisies",FALSE,0,2952,"plural","item"
"579",NA,189,3,"2","notebooks",FALSE,1,3029,"plural","nothing"
"580",NA,189,4,"2","donuts",TRUE,0,5384,"lexical","item"
"581",NA,189,5,"2","buckets",TRUE,0,7214,"lexical","item"
"582",NA,189,6,"2","envelopes",FALSE,0,4392,"plural","item"
"583",NA,189,7,"2","plants",TRUE,1,3303,"plural","item"
"584",NA,189,8,"2","scissors",FALSE,0,2298,"lexical","nothing"
"585",NA,189,9,"2","purses",FALSE,1,4724,"lexical","item"
"586",NA,189,10,"2","pie",FALSE,1,3254,"lexical","item"
"587",NA,189,11,"2","bows",TRUE,0,28152,"plural","nothing"
"588",NA,189,12,"2","shovels",TRUE,1,5070,"plural","item"
"589",NA,189,13,"2","dogs",FALSE,1,3669,"lexical","item"
"590",NA,189,14,"2","guitars",FALSE,0,3337,"lexical","nothing"
"591",NA,189,15,"2","cats",TRUE,0,2969,"plural","nothing"
"592",NA,189,16,"2","beach balls",FALSE,1,7385,"lexical","item"
"593",NA,189,17,"2","flowers",FALSE,0,3439,"lexical","nothing"
"594",NA,189,18,"2","ice cream",FALSE,1,3560,"lexical","item"
"595",NA,189,19,"2","baskets",TRUE,1,2157,"plural","item"
"596",NA,189,20,"2","apples",TRUE,0,2146,"lexical","item"
"597",NA,189,21,"2","lollipops",FALSE,0,1864,"plural","item"
"598",NA,189,22,"2","oranges",TRUE,1,3511,"plural","item"
"599",NA,189,23,"2","coffee",TRUE,1,1669,"lexical","nothing"
"600",NA,189,24,"2","presents",FALSE,0,1716,"lexical","nothing"
"601",NA,189,25,"2","forks",FALSE,1,1899,"plural","nothing"
"602",NA,189,26,"2","dolls",TRUE,0,4274,"lexical","item"
"603",NA,189,27,"2","carrots",FALSE,0,2587,"plural","item"
"604",NA,189,28,"2","bananas",FALSE,0,2901,"lexical","nothing"
"605",NA,189,29,"2","fish",FALSE,0,1995,"plural","item"
"606",NA,189,30,"2","balloons",FALSE,1,3236,"plural","nothing"
"607",NA,189,31,"2","rainboots",TRUE,1,3034,"lexical","nothing"
"608",NA,189,32,"2","phones",TRUE,1,3464,"plural","item"
"609",NA,189,33,"2","crayons",TRUE,0,1897,"lexical","item"
"610",NA,189,34,"2","keys",FALSE,1,2958,"lexical","item"
"611",NA,189,35,"2","pencils",FALSE,0,3244,"lexical","nothing"
"612",NA,189,36,"2","salads",FALSE,0,2445,"lexical","nothing"
"613",NA,189,37,"2","mittens",FALSE,1,2455,"plural","nothing"
"614",NA,189,38,"2","umbrellas",TRUE,1,1991,"plural","item"
"615",NA,189,39,"2","kites",FALSE,1,1305,"plural","nothing"
"616",NA,189,40,"2","backpacks",FALSE,1,3070,"plural","nothing"
"617",NA,189,41,"2","trumpets",TRUE,0,1599,"plural","nothing"
"618",NA,189,42,"2","bowls",FALSE,1,2382,"lexical","item"
"619",NA,189,43,"2","cakes",TRUE,1,2084,"lexical","nothing"
"620",NA,189,44,"2","bears",TRUE,1,2597,"lexical","nothing"
"621",NA,189,45,"2","cookies",TRUE,0,1843,"plural","nothing"
"622",NA,189,46,"2","cars",FALSE,1,726,"plural","nothing"
"623",NA,189,47,"2","spoons",FALSE,0,2128,"lexical","nothing"
"624",NA,189,48,"2","flashlights",TRUE,0,1716,"plural","nothing"
"625",NA,18,1,"4","coffee",TRUE,0,1011,"plural","nothing"
"626",NA,18,2,"4","presents",TRUE,0,1449,"lexical","item"
"627",NA,18,3,"4","kites",FALSE,0,826,"plural","item"
"628",NA,18,4,"4","rainboots",FALSE,0,837,"lexical","nothing"
"629",NA,18,5,"4","bananas",TRUE,1,788,"plural","item"
"630",NA,18,6,"4","purses",FALSE,0,745,"lexical","nothing"
"631",NA,18,7,"4","beach balls",FALSE,1,691,"plural","nothing"
"632",NA,18,8,"4","mittens",FALSE,1,823,"plural","nothing"
"633",NA,18,9,"4","guitars",FALSE,1,2067,"lexical","item"
"634",NA,18,10,"4","keys",TRUE,1,1049,"plural","item"
"635",NA,18,11,"4","plants",FALSE,1,1015,"lexical","item"
"636",NA,18,12,"4","pencils",TRUE,1,1140,"plural","item"
"637",NA,18,13,"4","salads",TRUE,1,1313,"lexical","nothing"
"638",NA,18,14,"4","carrots",TRUE,1,1326,"lexical","nothing"
"639",NA,18,15,"4","cats",FALSE,0,733,"lexical","nothing"
"640",NA,18,16,"4","dolls",FALSE,1,1060,"lexical","item"
"641",NA,18,17,"4","trumpets",TRUE,1,1001,"plural","item"
"642",NA,18,18,"4","notebooks",TRUE,1,1237,"lexical","nothing"
"643",NA,18,19,"4","baskets",FALSE,0,1786,"plural","item"
"644",NA,18,20,"4","cars",FALSE,1,901,"plural","nothing"
"645",NA,18,21,"4","crayons",TRUE,0,2827,"lexical","item"
"646",NA,18,22,"4","scissors",FALSE,1,1269,"lexical","item"
"647",NA,18,23,"4","apples",TRUE,1,989,"plural","item"
"648",NA,18,24,"4","bowls",FALSE,0,874,"plural","item"
"649",NA,18,25,"4","tennis balls",TRUE,0,1197,"plural","nothing"
"650",NA,18,26,"4","bears",TRUE,0,1416,"plural","nothing"
"651",NA,18,27,"4","ice cream",FALSE,0,3412,"lexical","nothing"
"652",NA,18,28,"4","shovels",TRUE,0,1426,"lexical","item"
"653",NA,18,29,"4","lollipops",FALSE,1,1439,"plural","nothing"
"654",NA,18,30,"4","cakes",TRUE,0,1592,"lexical","item"
"655",NA,18,31,"4","cookies",FALSE,1,1131,"plural","nothing"
"656",NA,18,32,"4","spoons",FALSE,0,654,"lexical","nothing"
"657",NA,18,33,"4","balloons",TRUE,1,803,"lexical","nothing"
"658",NA,18,34,"4","daisies",FALSE,0,969,"plural","item"
"659",NA,18,35,"4","backpacks",FALSE,1,792,"plural","nothing"
"660",NA,18,36,"4","flashlights",TRUE,0,2037,"lexical","item"
"661",NA,18,37,"4","forks",TRUE,0,1266,"plural","nothing"
"662",NA,18,38,"4","envelopes",FALSE,0,1706,"plural","item"
"663",NA,18,39,"4","dogs",TRUE,0,2512,"lexical","item"
"664",NA,18,40,"4","oranges",FALSE,0,703,"lexical","nothing"
"665",NA,18,41,"4","bows",TRUE,1,1487,"lexical","nothing"
"666",NA,18,42,"4","pie",TRUE,0,1215,"lexical","item"
"667",NA,18,43,"4","buckets",TRUE,1,362,"plural","item"
"668",NA,18,44,"4","phones",TRUE,0,410,"plural","nothing"
"669",NA,18,45,"4","fish",FALSE,1,288,"lexical","item"
"670",NA,18,46,"4","umbrellas",TRUE,1,309,"plural","item"
"671",NA,18,47,"4","flowers",FALSE,0,357,"lexical","nothing"
"672",NA,18,48,"4","donuts",TRUE,0,218,"plural","nothing"
"673",NA,77,1,"4","purses",TRUE,1,1880,"lexical","nothing"
"674",NA,77,2,"4","balloons",TRUE,1,1289,"lexical","nothing"
"675",NA,77,3,"4","cookies",TRUE,1,1372,"plural","item"
"676",NA,77,4,"4","scissors",TRUE,1,932,"plural","item"
"677",NA,77,5,"4","cakes",TRUE,1,1101,"plural","item"
"678",NA,77,6,"4","buckets",FALSE,1,1397,"plural","nothing"
"679",NA,77,7,"4","lollipops",TRUE,0,1577,"plural","nothing"
"680",NA,77,8,"4","notebooks",FALSE,1,1346,"plural","nothing"
"681",NA,77,9,"4","coffee",FALSE,1,1923,"lexical","item"
"682",NA,77,10,"4","plants",TRUE,1,1019,"plural","item"
"683",NA,77,11,"4","kites",FALSE,1,933,"plural","nothing"
"684",NA,77,12,"4","fish",FALSE,1,2035,"lexical","item"
"685",NA,77,13,"4","pencils",TRUE,1,1012,"plural","item"
"686",NA,77,14,"4","flashlights",FALSE,1,1303,"lexical","item"
"687",NA,77,15,"4","umbrellas",FALSE,0,1196,"lexical","nothing"
"688",NA,77,16,"4","tennis balls",FALSE,1,2148,"lexical","item"
"689",NA,77,17,"4","dolls",TRUE,1,1642,"lexical","nothing"
"690",NA,77,18,"4","envelopes",TRUE,1,947,"plural","item"
"691",NA,77,19,"4","cars",FALSE,0,981,"lexical","nothing"
"692",NA,77,20,"4","bows",FALSE,1,1883,"lexical","item"
"693",NA,77,21,"4","trumpets",FALSE,1,1195,"lexical","item"
"694",NA,77,22,"4","mittens",FALSE,1,1301,"plural","nothing"
"695",NA,77,23,"4","beach balls",TRUE,1,1491,"lexical","nothing"
"696",NA,77,24,"4","cats",FALSE,1,1194,"lexical","item"
"697",NA,77,25,"4","guitars",TRUE,1,1140,"lexical","nothing"
"698",NA,77,26,"4","backpacks",TRUE,1,1515,"plural","item"
"699",NA,77,27,"4","salads",TRUE,1,1819,"plural","item"
"700",NA,77,28,"4","bowls",TRUE,1,1435,"lexical","nothing"
"701",NA,77,29,"4","forks",TRUE,1,971,"lexical","nothing"
"702",NA,77,30,"4","carrots",TRUE,1,1467,"plural","item"
"703",NA,77,31,"4","apples",FALSE,1,1933,"plural","nothing"
"704",NA,77,32,"4","dogs",FALSE,1,1593,"lexical","item"
"705",NA,77,33,"4","phones",FALSE,1,1429,"lexical","item"
"706",NA,77,34,"4","crayons",FALSE,1,1299,"plural","nothing"
"707",NA,77,35,"4","flowers",TRUE,1,1140,"plural","item"
"708",NA,77,36,"4","baskets",TRUE,1,1932,"plural","item"
"709",NA,77,37,"4","oranges",TRUE,1,1313,"lexical","nothing"
"710",NA,77,38,"4","pie",FALSE,1,1443,"lexical","item"
"711",NA,77,39,"4","bears",TRUE,1,2091,"lexical","nothing"
"712",NA,77,40,"4","presents",TRUE,1,1292,"lexical","nothing"
"713",NA,77,41,"4","daisies",FALSE,1,1217,"plural","nothing"
"714",NA,77,42,"4","spoons",FALSE,1,1587,"plural","nothing"
"715",NA,77,43,"4","ice cream",FALSE,1,1249,"plural","nothing"
"716",NA,77,44,"4","donuts",TRUE,1,1155,"plural","item"
"717",NA,77,45,"4","keys",FALSE,1,1477,"lexical","item"
"718",NA,77,46,"4","bananas",FALSE,1,1228,"plural","nothing"
"719",NA,77,47,"4","shovels",FALSE,1,1423,"plural","nothing"
"720",NA,77,48,"4","rainboots",FALSE,1,1753,"lexical","item"
"721",NA,54,1,"4","notebooks",TRUE,1,2530,"plural","item"
"722",NA,54,2,"4","guitars",TRUE,1,1740,"lexical","nothing"
"723",NA,54,3,"4","cakes",TRUE,1,1678,"lexical","nothing"
"724",NA,54,4,"4","spoons",TRUE,1,2235,"plural","item"
"725",NA,54,5,"4","phones",TRUE,1,2007,"lexical","nothing"
"726",NA,54,6,"4","pencils",FALSE,1,1809,"lexical","item"
"727",NA,54,7,"4","flowers",FALSE,1,1762,"lexical","item"
"728",NA,54,8,"4","mittens",TRUE,1,1789,"plural","item"
"729",NA,54,9,"4","salads",TRUE,1,1423,"lexical","nothing"
"730",NA,54,10,"4","presents",FALSE,1,1829,"plural","nothing"
"731",NA,54,11,"4","tennis balls",TRUE,1,1264,"lexical","nothing"
"732",NA,54,12,"4","daisies",FALSE,1,1481,"lexical","item"
"733",NA,54,13,"4","donuts",FALSE,1,1842,"lexical","item"
"734",NA,54,14,"4","balloons",TRUE,0,1283,"plural","nothing"
"735",NA,54,15,"4","coffee",FALSE,1,1743,"plural","nothing"
"736",NA,54,16,"4","dogs",TRUE,1,2169,"lexical","nothing"
"737",NA,54,17,"4","baskets",FALSE,1,1570,"lexical","item"
"738",NA,54,18,"4","scissors",TRUE,1,1837,"plural","item"
"739",NA,54,19,"4","purses",FALSE,1,1799,"lexical","item"
"740",NA,54,20,"4","backpacks",FALSE,1,1989,"plural","nothing"
"741",NA,54,21,"4","keys",TRUE,1,1138,"plural","item"
"742",NA,54,22,"4","bowls",FALSE,1,1442,"plural","nothing"
"743",NA,54,23,"4","apples",TRUE,1,1051,"plural","item"
"744",NA,54,24,"4","trumpets",FALSE,1,1606,"lexical","item"
"745",NA,54,25,"4","fish",FALSE,1,1312,"plural","nothing"
"746",NA,54,26,"4","pie",TRUE,1,2153,"plural","item"
"747",NA,54,27,"4","umbrellas",TRUE,1,1257,"plural","item"
"748",NA,54,28,"4","kites",TRUE,1,1466,"lexical","nothing"
"749",NA,54,29,"4","crayons",FALSE,1,1591,"lexical","item"
"750",NA,54,30,"4","dolls",FALSE,1,4667,"lexical","item"
"751",NA,54,31,"4","cars",FALSE,1,1273,"plural","nothing"
"752",NA,54,32,"4","bananas",FALSE,1,1203,"lexical","item"
"753",NA,54,33,"4","carrots",FALSE,1,1337,"plural","nothing"
"754",NA,54,34,"4","lollipops",TRUE,1,1589,"lexical","nothing"
"755",NA,54,35,"4","plants",FALSE,1,1191,"plural","nothing"
"756",NA,54,36,"4","buckets",FALSE,1,1375,"lexical","item"
"757",NA,54,37,"4","forks",TRUE,1,959,"plural","item"
"758",NA,54,38,"4","ice cream",TRUE,1,1872,"lexical","nothing"
"759",NA,54,39,"4","bears",FALSE,1,1124,"plural","nothing"
"760",NA,54,40,"4","oranges",FALSE,1,1766,"lexical","item"
"761",NA,54,41,"4","bows",TRUE,1,3344,"lexical","nothing"
"762",NA,54,42,"4","cookies",TRUE,1,1266,"lexical","nothing"
"763",NA,54,43,"4","beach balls",FALSE,1,1865,"plural","nothing"
"764",NA,54,44,"4","rainboots",FALSE,0,1860,"plural","item"
"765",NA,54,45,"4","cats",TRUE,1,1260,"plural","item"
"766",NA,54,46,"4","flashlights",FALSE,1,1074,"plural","nothing"
"767",NA,54,47,"4","shovels",TRUE,1,1081,"plural","item"
"768",NA,54,48,"4","envelopes",TRUE,1,1999,"lexical","nothing"
"769",NA,142,1,"4","beach balls",TRUE,1,1569,"plural","item"
"770",NA,142,2,"4","apples",TRUE,1,1542,"lexical","nothing"
"771",NA,142,3,"4","salads",TRUE,1,1038,"plural","item"
"772",NA,142,4,"4","phones",TRUE,1,1112,"lexical","nothing"
"773",NA,142,5,"4","pencils",TRUE,1,921,"lexical","nothing"
"774",NA,142,6,"4","cars",TRUE,1,939,"lexical","nothing"
"775",NA,142,7,"4","crayons",TRUE,1,968,"plural","item"
"776",NA,142,8,"4","coffee",TRUE,1,860,"lexical","nothing"
"777",NA,142,9,"4","backpacks",TRUE,1,1087,"lexical","nothing"
"778",NA,142,10,"4","tennis balls",FALSE,1,1141,"lexical","item"
"779",NA,142,11,"4","bears",FALSE,1,1149,"plural","nothing"
"780",NA,142,12,"4","plants",FALSE,1,1077,"plural","nothing"
"781",NA,142,13,"4","presents",TRUE,1,1451,"lexical","nothing"
"782",NA,142,14,"4","cakes",TRUE,1,957,"plural","item"
"783",NA,142,15,"4","trumpets",TRUE,1,979,"plural","item"
"784",NA,142,16,"4","keys",FALSE,1,1081,"plural","nothing"
"785",NA,142,17,"4","rainboots",FALSE,1,2187,"lexical","item"
"786",NA,142,18,"4","scissors",FALSE,1,1595,"plural","nothing"
"787",NA,142,19,"4","bananas",TRUE,1,739,"plural","item"
"788",NA,142,20,"4","cats",FALSE,1,1445,"lexical","item"
"789",NA,142,21,"4","ice cream",TRUE,1,1041,"plural","item"
"790",NA,142,22,"4","buckets",TRUE,1,986,"lexical","nothing"
"791",NA,142,23,"4","dolls",FALSE,1,1345,"lexical","item"
"792",NA,142,24,"4","bows",TRUE,1,1183,"plural","item"
"793",NA,142,25,"4","purses",TRUE,1,927,"plural","item"
"794",NA,142,26,"4","bowls",FALSE,1,1001,"lexical","item"
"795",NA,142,27,"4","forks",FALSE,1,1446,"lexical","item"
"796",NA,142,28,"4","oranges",FALSE,1,1106,"plural","nothing"
"797",NA,142,29,"4","flashlights",TRUE,1,817,"plural","item"
"798",NA,142,30,"4","dogs",FALSE,1,757,"plural","nothing"
"799",NA,142,31,"4","carrots",FALSE,1,1258,"plural","nothing"
"800",NA,142,32,"4","envelopes",TRUE,1,1139,"lexical","nothing"
"801",NA,142,33,"4","mittens",TRUE,1,865,"lexical","nothing"
"802",NA,142,34,"4","guitars",FALSE,1,955,"lexical","item"
"803",NA,142,35,"4","kites",TRUE,1,951,"lexical","nothing"
"804",NA,142,36,"4","shovels",FALSE,1,1232,"plural","nothing"
"805",NA,142,37,"4","pie",FALSE,1,1150,"lexical","item"
"806",NA,142,38,"4","spoons",FALSE,1,1411,"plural","nothing"
"807",NA,142,39,"4","flowers",FALSE,1,941,"plural","nothing"
"808",NA,142,40,"4","donuts",TRUE,1,862,"plural","item"
"809",NA,142,41,"4","umbrellas",FALSE,1,1108,"lexical","item"
"810",NA,142,42,"4","notebooks",FALSE,1,1083,"plural","nothing"
"811",NA,142,43,"4","cookies",TRUE,1,1337,"plural","item"
"812",NA,142,44,"4","balloons",TRUE,1,1069,"lexical","nothing"
"813",NA,142,45,"4","baskets",FALSE,1,853,"lexical","item"
"814",NA,142,46,"4","fish",FALSE,1,1078,"plural","nothing"
"815",NA,142,47,"4","lollipops",FALSE,1,1122,"lexical","item"
"816",NA,142,48,"4","daisies",FALSE,1,884,"lexical","item"
"817",NA,1,1,"4","flashlights",FALSE,1,1029,"plural","nothing"
"818",NA,1,2,"4","ice cream",TRUE,1,1121,"lexical","nothing"
"819",NA,1,3,"4","buckets",TRUE,1,952,"plural","item"
"820",NA,1,4,"4","kites",FALSE,1,931,"lexical","item"
"821",NA,1,5,"4","dogs",FALSE,1,1090,"lexical","item"
"822",NA,1,6,"4","shovels",FALSE,1,975,"lexical","item"
"823",NA,1,7,"4","phones",TRUE,1,990,"plural","item"
"824",NA,1,8,"4","spoons",FALSE,1,693,"plural","nothing"
"825",NA,1,9,"4","purses",TRUE,1,784,"plural","item"
"826",NA,1,10,"4","keys",FALSE,1,1378,"plural","nothing"
"827",NA,1,11,"4","bowls",FALSE,1,956,"lexical","item"
"828",NA,1,12,"4","balloons",FALSE,1,1019,"plural","nothing"
"829",NA,1,13,"4","rainboots",FALSE,1,1427,"plural","nothing"
"830",NA,1,14,"4","trumpets",FALSE,1,1622,"lexical","item"
"831",NA,1,15,"4","pencils",TRUE,1,988,"plural","item"
"832",NA,1,16,"4","fish",FALSE,1,1089,"plural","nothing"
"833",NA,1,17,"4","notebooks",TRUE,1,974,"plural","item"
"834",NA,1,18,"4","cars",FALSE,1,974,"lexical","item"
"835",NA,1,19,"4","lollipops",FALSE,1,965,"lexical","item"
"836",NA,1,20,"4","presents",FALSE,0,1032,"lexical","nothing"
"837",NA,1,21,"4","plants",FALSE,1,969,"plural","nothing"
"838",NA,1,22,"4","backpacks",TRUE,1,872,"plural","item"
"839",NA,1,23,"4","cookies",FALSE,1,966,"plural","nothing"
"840",NA,1,24,"4","dolls",TRUE,1,779,"plural","item"
"841",NA,1,25,"4","daisies",FALSE,1,923,"lexical","item"
"842",NA,1,26,"4","coffee",FALSE,1,986,"lexical","item"
"843",NA,1,27,"4","scissors",TRUE,1,1093,"plural","item"
"844",NA,1,28,"4","salads",FALSE,1,1007,"plural","nothing"
"845",NA,1,29,"4","donuts",TRUE,1,1047,"lexical","nothing"
"846",NA,1,30,"4","flowers",FALSE,1,966,"plural","nothing"
"847",NA,1,31,"4","bears",TRUE,1,1310,"lexical","nothing"
"848",NA,1,32,"4","apples",TRUE,1,1194,"lexical","nothing"
"849",NA,1,33,"4","umbrellas",TRUE,1,892,"lexical","nothing"
"850",NA,1,34,"4","beach balls",FALSE,1,843,"lexical","item"
"851",NA,1,35,"4","tennis balls",TRUE,1,886,"plural","item"
"852",NA,1,36,"4","forks",TRUE,1,772,"lexical","nothing"
"853",NA,1,37,"4","baskets",TRUE,1,765,"lexical","nothing"
"854",NA,1,38,"4","envelopes",FALSE,1,948,"lexical","item"
"855",NA,1,39,"4","bows",TRUE,1,1123,"plural","item"
"856",NA,1,40,"4","oranges",FALSE,1,1004,"plural","nothing"
"857",NA,1,41,"4","cats",TRUE,1,902,"lexical","nothing"
"858",NA,1,42,"4","cakes",TRUE,1,784,"lexical","nothing"
"859",NA,1,43,"4","pie",TRUE,1,651,"plural","item"
"860",NA,1,44,"4","mittens",FALSE,1,1266,"lexical","item"
"861",NA,1,45,"4","guitars",TRUE,1,847,"lexical","nothing"
"862",NA,1,46,"4","crayons",TRUE,1,751,"plural","item"
"863",NA,1,47,"4","carrots",TRUE,1,928,"lexical","nothing"
"864",NA,1,48,"4","bananas",FALSE,1,1060,"plural","nothing"
"865",NA,170,1,"0","fish",TRUE,1,3912,"lexical","nothing"
"866",NA,170,2,"0","guitars",TRUE,1,1985,"lexical","nothing"
"867",NA,170,3,"0","envelopes",TRUE,1,4655,"plural","item"
"868",NA,170,4,"0","phones",TRUE,1,3952,"plural","item"
"869",NA,170,5,"0","flowers",TRUE,1,3983,"lexical","nothing"
"870",NA,170,6,"0","beach balls",FALSE,1,3010,"plural","nothing"
"871",NA,170,7,"0","mittens",FALSE,1,3506,"lexical","item"
"872",NA,170,8,"0","shovels",FALSE,1,2260,"plural","nothing"
"873",NA,170,9,"0","presents",TRUE,1,2140,"plural","item"
"874",NA,170,10,"0","cakes",TRUE,1,1875,"lexical","nothing"
"875",NA,170,11,"0","trumpets",TRUE,1,2429,"lexical","nothing"
"876",NA,170,12,"0","balloons",FALSE,1,2051,"plural","nothing"
"877",NA,170,13,"0","bowls",FALSE,1,2060,"lexical","item"
"878",NA,170,14,"0","daisies",FALSE,1,2498,"lexical","item"
"879",NA,170,15,"0","donuts",TRUE,1,1648,"lexical","nothing"
"880",NA,170,16,"0","salads",TRUE,1,1769,"plural","item"
"881",NA,170,17,"0","lollipops",FALSE,1,2160,"lexical","item"
"882",NA,170,18,"0","dogs",FALSE,1,2320,"lexical","item"
"883",NA,170,19,"0","kites",TRUE,1,4993,"lexical","nothing"
"884",NA,170,20,"0","purses",FALSE,1,2468,"lexical","item"
"885",NA,170,21,"0","buckets",TRUE,1,3156,"plural","item"
"886",NA,170,22,"0","baskets",FALSE,1,1517,"plural","nothing"
"887",NA,170,23,"0","tennis balls",TRUE,1,3129,"plural","item"
"888",NA,170,24,"0","coffee",FALSE,1,1165,"plural","nothing"
"889",NA,170,25,"0","apples",TRUE,1,2434,"lexical","nothing"
"890",NA,170,26,"0","crayons",TRUE,1,2432,"plural","item"
"891",NA,170,27,"0","backpacks",TRUE,1,2554,"plural","item"
"892",NA,170,28,"0","keys",TRUE,1,2710,"lexical","nothing"
"893",NA,170,29,"0","cats",TRUE,1,1810,"plural","item"
"894",NA,170,30,"0","bears",TRUE,1,3064,"plural","item"
"895",NA,170,31,"0","forks",TRUE,1,2210,"lexical","nothing"
"896",NA,170,32,"0","rainboots",FALSE,1,4543,"lexical","item"
"897",NA,170,33,"0","cars",FALSE,1,2605,"plural","nothing"
"898",NA,170,34,"0","pencils",FALSE,0,1884,"lexical","nothing"
"899",NA,170,35,"0","flashlights",FALSE,1,2446,"plural","nothing"
"900",NA,170,36,"0","ice cream",TRUE,1,2008,"plural","item"
"901",NA,170,37,"0","pie",TRUE,1,3107,"plural","item"
"902",NA,170,38,"0","bows",FALSE,1,1916,"lexical","item"
"903",NA,170,39,"0","carrots",FALSE,1,2299,"plural","nothing"
"904",NA,170,40,"0","bananas",FALSE,1,1334,"lexical","item"
"905",NA,170,41,"0","plants",FALSE,1,1718,"plural","nothing"
"906",NA,170,42,"0","scissors",FALSE,1,1860,"lexical","item"
"907",NA,170,43,"0","umbrellas",TRUE,1,1997,"lexical","nothing"
"908",NA,170,44,"0","spoons",FALSE,1,3652,"plural","nothing"
"909",NA,170,45,"0","dolls",FALSE,1,3823,"plural","nothing"
"910",NA,170,46,"0","oranges",FALSE,1,1670,"lexical","item"
"911",NA,170,47,"0","notebooks",FALSE,1,2301,"lexical","item"
"912",NA,170,48,"0","cookies",FALSE,1,2146,"plural","nothing"
"913",NA,245,1,"0","bananas",TRUE,1,1361,"plural","item"
"914",NA,245,2,"0","dolls",TRUE,0,2339,"lexical","item"
"915",NA,245,3,"0","purses",FALSE,0,2131,"plural","item"
"916",NA,245,4,"0","envelopes",TRUE,1,2261,"plural","item"
"917",NA,245,5,"0","bows",FALSE,1,2307,"plural","nothing"
"918",NA,245,6,"0","rainboots",TRUE,1,1612,"plural","item"
"919",NA,245,7,"0","bowls",TRUE,1,2861,"lexical","nothing"
"920",NA,245,8,"0","salads",TRUE,1,1288,"plural","item"
"921",NA,245,9,"0","shovels",FALSE,1,2690,"lexical","item"
"922",NA,245,10,"0","ice cream",TRUE,1,2445,"lexical","nothing"
"923",NA,245,11,"0","plants",FALSE,1,2069,"plural","nothing"
"924",NA,245,12,"0","tennis balls",TRUE,1,1346,"plural","item"
"925",NA,245,13,"0","umbrellas",TRUE,1,2122,"lexical","nothing"
"926",NA,245,14,"0","daisies",FALSE,1,1591,"lexical","item"
"927",NA,245,15,"0","pie",TRUE,1,2547,"lexical","nothing"
"928",NA,245,16,"0","cookies",FALSE,1,1651,"lexical","item"
"929",NA,245,17,"0","buckets",TRUE,1,1517,"plural","item"
"930",NA,245,18,"0","phones",FALSE,1,1573,"plural","nothing"
"931",NA,245,19,"0","cakes",TRUE,1,1131,"plural","item"
"932",NA,245,20,"0","backpacks",TRUE,1,2668,"lexical","nothing"
"933",NA,245,21,"0","presents",FALSE,1,1053,"plural","nothing"
"934",NA,245,22,"0","flashlights",TRUE,1,1279,"plural","item"
"935",NA,245,23,"0","lollipops",TRUE,1,1326,"plural","item"
"936",NA,245,24,"0","forks",FALSE,1,1560,"plural","nothing"
"937",NA,245,25,"0","cars",TRUE,1,1903,"lexical","nothing"
"938",NA,245,26,"0","apples",FALSE,1,3058,"lexical","item"
"939",NA,245,27,"0","bears",TRUE,1,1513,"plural","item"
"940",NA,245,28,"0","spoons",FALSE,1,1404,"plural","nothing"
"941",NA,245,29,"0","coffee",FALSE,1,1541,"plural","nothing"
"942",NA,245,30,"0","carrots",FALSE,1,3939,"lexical","item"
"943",NA,245,31,"0","donuts",FALSE,1,2871,"lexical","item"
"944",NA,245,32,"0","notebooks",TRUE,1,2168,"lexical","nothing"
"945",NA,245,33,"0","pencils",TRUE,1,1420,"lexical","nothing"
"946",NA,245,34,"0","cats",FALSE,1,1654,"plural","nothing"
"947",NA,245,35,"0","baskets",FALSE,1,2402,"plural","nothing"
"948",NA,245,36,"0","fish",TRUE,1,1822,"lexical","nothing"
"949",NA,245,37,"0","trumpets",FALSE,1,2564,"lexical","item"
"950",NA,245,38,"0","crayons",FALSE,1,1328,"plural","nothing"
"951",NA,245,39,"0","flowers",TRUE,1,1709,"lexical","nothing"
"952",NA,245,40,"0","keys",FALSE,1,3007,"lexical","item"
"953",NA,245,41,"0","kites",FALSE,1,2492,"plural","nothing"
"954",NA,245,42,"0","beach balls",FALSE,1,2621,"plural","nothing"
"955",NA,245,43,"0","dogs",TRUE,1,1954,"lexical","nothing"
"956",NA,245,44,"0","balloons",TRUE,1,1794,"plural","item"
"957",NA,245,45,"0","mittens",FALSE,1,2445,"lexical","item"
"958",NA,245,46,"0","guitars",TRUE,1,1261,"lexical","nothing"
"959",NA,245,47,"0","scissors",FALSE,1,1993,"lexical","item"
"960",NA,245,48,"0","oranges",FALSE,1,1184,"lexical","item"
"961",NA,191,1,"0","oranges",FALSE,1,1066,"plural","nothing"
"962",NA,191,2,"0","donuts",TRUE,1,845,"plural","item"
"963",NA,191,3,"0","guitars",FALSE,0,804,"lexical","nothing"
"964",NA,191,4,"0","coffee",TRUE,1,900,"lexical","nothing"
"965",NA,191,5,"0","notebooks",FALSE,1,1477,"lexical","item"
"966",NA,191,6,"0","apples",TRUE,1,764,"plural","item"
"967",NA,191,7,"0","carrots",FALSE,1,1633,"plural","nothing"
"968",NA,191,8,"0","cookies",FALSE,0,1103,"lexical","nothing"
"969",NA,191,9,"0","backpacks",FALSE,1,1298,"lexical","item"
"970",NA,191,10,"0","salads",FALSE,1,1308,"lexical","item"
"971",NA,191,11,"0","keys",FALSE,1,1141,"lexical","item"
"972",NA,191,12,"0","umbrellas",TRUE,1,1508,"lexical","nothing"
"973",NA,191,13,"0","forks",FALSE,0,1017,"plural","item"
"974",NA,191,14,"0","pencils",FALSE,1,2018,"lexical","item"
"975",NA,191,15,"0","beach balls",TRUE,1,1338,"lexical","nothing"
"976",NA,191,16,"0","rainboots",TRUE,1,937,"lexical","nothing"
"977",NA,191,17,"0","crayons",FALSE,1,1433,"lexical","item"
"978",NA,191,18,"0","plants",FALSE,1,1461,"lexical","item"
"979",NA,191,19,"0","shovels",TRUE,1,1057,"plural","item"
"980",NA,191,20,"0","phones",TRUE,1,803,"lexical","nothing"
"981",NA,191,21,"0","scissors",FALSE,1,847,"plural","nothing"
"982",NA,191,22,"0","bears",TRUE,1,1460,"plural","item"
"983",NA,191,23,"0","balloons",TRUE,1,988,"plural","item"
"984",NA,191,24,"0","kites",FALSE,1,807,"plural","nothing"
"985",NA,191,25,"0","daisies",FALSE,0,1088,"lexical","nothing"
"986",NA,191,26,"0","purses",TRUE,1,882,"lexical","nothing"
"987",NA,191,27,"0","spoons",FALSE,1,1119,"plural","nothing"
"988",NA,191,28,"0","flashlights",FALSE,1,1055,"plural","nothing"
"989",NA,191,29,"0","cars",FALSE,1,1046,"plural","nothing"
"990",NA,191,30,"0","tennis balls",FALSE,1,1037,"plural","nothing"
"991",NA,191,31,"0","presents",FALSE,1,1618,"lexical","item"
"992",NA,191,32,"0","dolls",FALSE,1,1404,"lexical","item"
"993",NA,191,33,"0","baskets",TRUE,1,797,"plural","item"
"994",NA,191,34,"0","trumpets",FALSE,1,747,"plural","nothing"
"995",NA,191,35,"0","mittens",TRUE,1,1028,"lexical","nothing"
"996",NA,191,36,"0","bananas",TRUE,1,779,"plural","item"
"997",NA,191,37,"0","buckets",TRUE,1,707,"plural","item"
"998",NA,191,38,"0","ice cream",FALSE,1,952,"lexical","item"
"999",NA,191,39,"0","flowers",FALSE,0,1139,"lexical","nothing"
"1000",NA,191,40,"0","bows",TRUE,1,1168,"plural","item"
"1001",NA,191,41,"0","cakes",FALSE,1,985,"plural","nothing"
"1002",NA,191,42,"0","cats",FALSE,1,912,"plural","nothing"
"1003",NA,191,43,"0","bowls",FALSE,1,1489,"lexical","item"
"1004",NA,191,44,"0","pie",TRUE,1,827,"plural","item"
"1005",NA,191,45,"0","lollipops",TRUE,1,686,"plural","item"
"1006",NA,191,46,"0","dogs",FALSE,1,1069,"lexical","item"
"1007",NA,191,47,"0","fish",FALSE,1,857,"plural","nothing"
"1008",NA,191,48,"0","envelopes",TRUE,1,1056,"lexical","nothing"
"1009",NA,236,1,"3","presents",FALSE,1,1974,"lexical","item"
"1010",NA,236,2,"3","guitars",FALSE,1,1553,"lexical","item"
"1011",NA,236,3,"3","bears",FALSE,1,1355,"plural","nothing"
"1012",NA,236,4,"3","envelopes",FALSE,0,873,"lexical","nothing"
"1013",NA,236,5,"3","coffee",TRUE,1,1006,"plural","item"
"1014",NA,236,6,"3","rainboots",TRUE,1,979,"plural","item"
"1015",NA,236,7,"3","bows",FALSE,1,1545,"lexical","item"
"1016",NA,236,8,"3","oranges",FALSE,1,1144,"plural","nothing"
"1017",NA,236,9,"3","cars",TRUE,1,1057,"lexical","nothing"
"1018",NA,236,10,"3","bowls",TRUE,1,1032,"plural","item"
"1019",NA,236,11,"3","cakes",TRUE,1,1336,"lexical","nothing"
"1020",NA,236,12,"3","pie",TRUE,1,994,"lexical","nothing"
"1021",NA,236,13,"3","keys",FALSE,1,1392,"plural","nothing"
"1022",NA,236,14,"3","spoons",FALSE,1,1233,"plural","nothing"
"1023",NA,236,15,"3","phones",TRUE,1,1303,"lexical","nothing"
"1024",NA,236,16,"3","tennis balls",TRUE,1,1091,"lexical","nothing"
"1025",NA,236,17,"3","mittens",FALSE,1,1256,"lexical","item"
"1026",NA,236,18,"3","lollipops",FALSE,1,1073,"lexical","item"
"1027",NA,236,19,"3","buckets",FALSE,1,1450,"plural","nothing"
"1028",NA,236,20,"3","fish",TRUE,1,1058,"plural","item"
"1029",NA,236,21,"3","pencils",TRUE,1,1089,"plural","item"
"1030",NA,236,22,"3","trumpets",TRUE,1,1060,"lexical","nothing"
"1031",NA,236,23,"3","dogs",TRUE,1,940,"plural","item"
"1032",NA,236,24,"3","balloons",FALSE,1,1049,"lexical","item"
"1033",NA,236,25,"3","scissors",FALSE,1,1131,"lexical","item"
"1034",NA,236,26,"3","flowers",TRUE,1,784,"plural","item"
"1035",NA,236,27,"3","forks",TRUE,1,1551,"lexical","nothing"
"1036",NA,236,28,"3","donuts",FALSE,1,1033,"plural","nothing"
"1037",NA,236,29,"3","notebooks",FALSE,1,1209,"plural","nothing"
"1038",NA,236,30,"3","umbrellas",TRUE,1,968,"lexical","nothing"
"1039",NA,236,31,"3","kites",TRUE,1,1043,"lexical","nothing"
"1040",NA,236,32,"3","backpacks",FALSE,1,976,"lexical","item"
"1041",NA,236,33,"3","plants",FALSE,1,1097,"plural","nothing"
"1042",NA,236,34,"3","cookies",TRUE,1,1067,"plural","item"
"1043",NA,236,35,"3","ice cream",TRUE,1,984,"plural","item"
"1044",NA,236,36,"3","carrots",FALSE,1,1057,"plural","nothing"
"1045",NA,236,37,"3","baskets",FALSE,1,1393,"lexical","item"
"1046",NA,236,38,"3","bananas",FALSE,1,1065,"plural","nothing"
"1047",NA,236,39,"3","apples",FALSE,1,1073,"plural","nothing"
"1048",NA,236,40,"3","cats",FALSE,1,1523,"lexical","item"
"1049",NA,236,41,"3","shovels",FALSE,1,919,"lexical","item"
"1050",NA,236,42,"3","flashlights",FALSE,1,1080,"plural","nothing"
"1051",NA,236,43,"3","dolls",TRUE,1,1138,"lexical","nothing"
"1052",NA,236,44,"3","salads",TRUE,1,1177,"lexical","nothing"
"1053",NA,236,45,"3","beach balls",TRUE,1,902,"plural","item"
"1054",NA,236,46,"3","purses",FALSE,1,1275,"lexical","item"
"1055",NA,236,47,"3","daisies",TRUE,1,946,"plural","item"
"1056",NA,236,48,"3","crayons",TRUE,1,878,"plural","item"
"1057",NA,320,1,"3","purses",FALSE,1,1165,"lexical","item"
"1058",NA,320,2,"3","donuts",TRUE,1,871,"lexical","nothing"
"1059",NA,320,3,"3","cats",FALSE,1,1065,"plural","nothing"
"1060",NA,320,4,"3","pencils",TRUE,1,934,"lexical","nothing"
"1061",NA,320,5,"3","phones",FALSE,1,807,"lexical","item"
"1062",NA,320,6,"3","carrots",FALSE,1,1177,"plural","nothing"
"1063",NA,320,7,"3","cookies",FALSE,1,1030,"lexical","item"
"1064",NA,320,8,"3","cars",TRUE,1,584,"lexical","nothing"
"1065",NA,320,9,"3","bears",FALSE,1,695,"plural","nothing"
"1066",NA,320,10,"3","tennis balls",TRUE,1,888,"plural","item"
"1067",NA,320,11,"3","dolls",TRUE,1,1015,"plural","item"
"1068",NA,320,12,"3","envelopes",FALSE,1,1094,"plural","nothing"
"1069",NA,320,13,"3","beach balls",FALSE,1,1690,"lexical","item"
"1070",NA,320,14,"3","guitars",TRUE,1,1050,"lexical","nothing"
"1071",NA,320,15,"3","shovels",TRUE,1,1110,"plural","item"
"1072",NA,320,16,"3","bananas",TRUE,1,824,"lexical","nothing"
"1073",NA,320,17,"3","ice cream",FALSE,0,744,"plural","item"
"1074",NA,320,18,"3","baskets",TRUE,1,1029,"lexical","nothing"
"1075",NA,320,19,"3","balloons",FALSE,1,825,"lexical","item"
"1076",NA,320,20,"3","trumpets",TRUE,1,755,"plural","item"
"1077",NA,320,21,"3","rainboots",FALSE,1,2247,"lexical","item"
"1078",NA,320,22,"3","presents",FALSE,1,793,"lexical","item"
"1079",NA,320,23,"3","oranges",FALSE,1,870,"plural","nothing"
"1080",NA,320,24,"3","buckets",TRUE,1,1109,"lexical","nothing"
"1081",NA,320,25,"3","fish",FALSE,1,742,"lexical","item"
"1082",NA,320,26,"3","coffee",TRUE,1,697,"plural","item"
"1083",NA,320,27,"3","flowers",TRUE,1,952,"lexical","nothing"
"1084",NA,320,28,"3","daisies",TRUE,1,663,"plural","item"
"1085",NA,320,29,"3","umbrellas",FALSE,1,1367,"plural","nothing"
"1086",NA,320,30,"3","dogs",TRUE,1,1015,"lexical","nothing"
"1087",NA,320,31,"3","apples",FALSE,1,1001,"plural","nothing"
"1088",NA,320,32,"3","flashlights",TRUE,1,1112,"lexical","nothing"
"1089",NA,320,33,"3","plants",FALSE,1,1144,"plural","nothing"
"1090",NA,320,34,"3","cakes",FALSE,1,1048,"plural","nothing"
"1091",NA,320,35,"3","backpacks",FALSE,1,1259,"plural","nothing"
"1092",NA,320,36,"3","forks",TRUE,1,952,"lexical","nothing"
"1093",NA,320,37,"3","crayons",FALSE,1,1080,"lexical","item"
"1094",NA,320,38,"3","salads",FALSE,1,840,"plural","nothing"
"1095",NA,320,39,"3","lollipops",TRUE,1,743,"plural","item"
"1096",NA,320,40,"3","spoons",TRUE,1,889,"lexical","nothing"
"1097",NA,320,41,"3","pie",TRUE,1,791,"plural","item"
"1098",NA,320,42,"3","notebooks",TRUE,1,983,"plural","item"
"1099",NA,320,43,"3","bowls",FALSE,1,872,"lexical","item"
"1100",NA,320,44,"3","kites",FALSE,1,904,"plural","nothing"
"1101",NA,320,45,"3","mittens",TRUE,1,885,"plural","item"
"1102",NA,320,46,"3","scissors",TRUE,1,712,"plural","item"
"1103",NA,320,47,"3","bows",FALSE,1,856,"lexical","item"
"1104",NA,320,48,"3","keys",FALSE,1,872,"lexical","item"
"1105",NA,200,1,"3","cats",FALSE,1,1339,"lexical","item"
"1106",NA,200,2,"3","oranges",FALSE,1,845,"plural","nothing"
"1107",NA,200,3,"3","kites",FALSE,0,972,"lexical","nothing"
"1108",NA,200,4,"3","donuts",FALSE,1,1574,"plural","nothing"
"1109",NA,200,5,"3","fish",TRUE,1,1031,"lexical","nothing"
"1110",NA,200,6,"3","dolls",FALSE,1,1174,"lexical","item"
"1111",NA,200,7,"3","trumpets",FALSE,1,1023,"lexical","item"
"1112",NA,200,8,"3","mittens",TRUE,0,981,"plural","nothing"
"1113",NA,200,9,"3","daisies",TRUE,1,822,"lexical","nothing"
"1114",NA,200,10,"3","cookies",TRUE,0,733,"plural","nothing"
"1115",NA,200,11,"3","presents",TRUE,1,661,"lexical","nothing"
"1116",NA,200,12,"3","balloons",FALSE,1,1078,"lexical","item"
"1117",NA,200,13,"3","apples",TRUE,1,1093,"plural","item"
"1118",NA,200,14,"3","backpacks",FALSE,1,1095,"lexical","item"
"1119",NA,200,15,"3","notebooks",FALSE,1,1114,"lexical","item"
"1120",NA,200,16,"3","bananas",TRUE,1,959,"plural","item"
"1121",NA,200,17,"3","baskets",TRUE,1,878,"plural","item"
"1122",NA,200,18,"3","lollipops",TRUE,1,693,"plural","item"
"1123",NA,200,19,"3","shovels",FALSE,1,1069,"plural","nothing"
"1124",NA,200,20,"3","tennis balls",TRUE,1,918,"plural","item"
"1125",NA,200,21,"3","umbrellas",TRUE,1,902,"lexical","nothing"
"1126",NA,200,22,"3","coffee",TRUE,1,943,"lexical","nothing"
"1127",NA,200,23,"3","spoons",FALSE,1,886,"lexical","item"
"1128",NA,200,24,"3","pie",FALSE,1,1100,"lexical","item"
"1129",NA,200,25,"3","buckets",TRUE,1,901,"lexical","nothing"
"1130",NA,200,26,"3","pencils",TRUE,1,1006,"plural","item"
"1131",NA,200,27,"3","plants",FALSE,1,982,"lexical","item"
"1132",NA,200,28,"3","cars",FALSE,1,1087,"plural","nothing"
"1133",NA,200,29,"3","cakes",TRUE,1,1351,"plural","item"
"1134",NA,200,30,"3","bowls",TRUE,1,924,"lexical","nothing"
"1135",NA,200,31,"3","dogs",TRUE,1,895,"plural","item"
"1136",NA,200,32,"3","rainboots",FALSE,0,934,"plural","item"
"1137",NA,200,33,"3","crayons",FALSE,1,965,"plural","nothing"
"1138",NA,200,34,"3","carrots",TRUE,1,1214,"plural","item"
"1139",NA,200,35,"3","purses",FALSE,1,967,"plural","nothing"
"1140",NA,200,36,"3","flowers",TRUE,1,1062,"lexical","nothing"
"1141",NA,200,37,"3","forks",TRUE,1,1070,"lexical","nothing"
"1142",NA,200,38,"3","bears",FALSE,1,1127,"plural","nothing"
"1143",NA,200,39,"3","phones",FALSE,1,1348,"plural","nothing"
"1144",NA,200,40,"3","beach balls",TRUE,1,1254,"plural","item"
"1145",NA,200,41,"3","scissors",FALSE,1,1238,"lexical","item"
"1146",NA,200,42,"3","guitars",TRUE,1,1166,"lexical","nothing"
"1147",NA,200,43,"3","keys",FALSE,1,1358,"lexical","item"
"1148",NA,200,44,"3","envelopes",TRUE,1,1221,"plural","item"
"1149",NA,200,45,"3","bows",TRUE,1,1773,"lexical","nothing"
"1150",NA,200,46,"3","flashlights",FALSE,1,862,"lexical","item"
"1151",NA,200,47,"3","ice cream",TRUE,0,790,"plural","nothing"
"1152",NA,200,48,"3","salads",FALSE,1,1044,"plural","nothing"
"1153",NA,395,1,"0","ice cream",FALSE,0,2362,"plural","item"
"1154",NA,395,2,"0","forks",TRUE,1,2783,"lexical","nothing"
"1155",NA,395,3,"0","backpacks",FALSE,1,1812,"lexical","item"
"1156",NA,395,4,"0","spoons",FALSE,1,1812,"lexical","item"
"1157",NA,395,5,"0","rainboots",FALSE,1,1852,"lexical","item"
"1158",NA,395,6,"0","bears",TRUE,1,1653,"plural","item"
"1159",NA,395,7,"0","plants",FALSE,1,2174,"plural","nothing"
"1160",NA,395,8,"0","buckets",FALSE,1,1724,"lexical","item"
"1161",NA,395,9,"0","umbrellas",FALSE,1,1851,"plural","nothing"
"1162",NA,395,10,"0","tennis balls",FALSE,1,1283,"plural","nothing"
"1163",NA,395,11,"0","daisies",TRUE,1,1718,"plural","item"
"1164",NA,395,12,"0","apples",TRUE,1,1284,"plural","item"
"1165",NA,395,13,"0","donuts",FALSE,1,1516,"lexical","item"
"1166",NA,395,14,"0","envelopes",TRUE,1,1533,"lexical","nothing"
"1167",NA,395,15,"0","coffee",TRUE,1,2082,"lexical","nothing"
"1168",NA,395,16,"0","bows",TRUE,1,2833,"lexical","nothing"
"1169",NA,395,17,"0","notebooks",TRUE,1,1812,"lexical","nothing"
"1170",NA,395,18,"0","scissors",FALSE,1,1547,"lexical","item"
"1171",NA,395,19,"0","crayons",TRUE,1,1438,"plural","item"
"1172",NA,395,20,"0","purses",FALSE,1,2206,"plural","nothing"
"1173",NA,395,21,"0","keys",FALSE,1,1345,"plural","nothing"
"1174",NA,395,22,"0","shovels",TRUE,1,2951,"lexical","nothing"
"1175",NA,395,23,"0","lollipops",TRUE,1,1620,"plural","item"
"1176",NA,395,24,"0","cars",TRUE,1,1771,"lexical","nothing"
"1177",NA,395,25,"0","kites",FALSE,1,2118,"lexical","item"
"1178",NA,395,26,"0","beach balls",TRUE,1,1812,"lexical","nothing"
"1179",NA,395,27,"0","bananas",FALSE,1,1804,"plural","nothing"
"1180",NA,395,28,"0","fish",FALSE,1,1508,"lexical","item"
"1181",NA,395,29,"0","pie",TRUE,1,1987,"plural","item"
"1182",NA,395,30,"0","oranges",FALSE,1,2052,"plural","nothing"
"1183",NA,395,31,"0","guitars",TRUE,1,1476,"lexical","nothing"
"1184",NA,395,32,"0","salads",FALSE,1,2163,"lexical","item"
"1185",NA,395,33,"0","flowers",TRUE,1,2165,"lexical","nothing"
"1186",NA,395,34,"0","carrots",TRUE,1,1262,"plural","item"
"1187",NA,395,35,"0","cats",TRUE,1,1124,"plural","item"
"1188",NA,395,36,"0","balloons",FALSE,1,1316,"plural","nothing"
"1189",NA,395,37,"0","cookies",TRUE,1,1499,"plural","item"
"1190",NA,395,38,"0","baskets",TRUE,1,1963,"lexical","nothing"
"1191",NA,395,39,"0","trumpets",FALSE,1,1197,"plural","nothing"
"1192",NA,395,40,"0","mittens",FALSE,1,1252,"plural","nothing"
"1193",NA,395,41,"0","cakes",FALSE,1,2091,"lexical","item"
"1194",NA,395,42,"0","pencils",TRUE,1,1237,"plural","item"
"1195",NA,395,43,"0","phones",TRUE,1,1931,"plural","item"
"1196",NA,395,44,"0","bowls",TRUE,1,1487,"lexical","nothing"
"1197",NA,395,45,"0","flashlights",FALSE,1,1430,"lexical","item"
"1198",NA,395,46,"0","dogs",TRUE,0,1435,"plural","nothing"
"1199",NA,395,47,"0","dolls",FALSE,1,2078,"lexical","item"
"1200",NA,395,48,"0","presents",FALSE,1,1676,"plural","nothing"
"1201",NA,163,1,"0","salads",FALSE,0,2104,"plural","item"
"1202",NA,163,2,"0","crayons",TRUE,1,2641,"lexical","nothing"
"1203",NA,163,3,"0","mittens",FALSE,1,796,"lexical","item"
"1204",NA,163,4,"0","buckets",TRUE,0,593,"plural","nothing"
"1205",NA,163,5,"0","cars",TRUE,0,901,"lexical","item"
"1206",NA,163,6,"0","bowls",FALSE,1,1702,"lexical","item"
"1207",NA,163,7,"0","notebooks",TRUE,0,2545,"lexical","item"
"1208",NA,163,8,"0","presents",TRUE,0,3659,"plural","nothing"
"1209",NA,163,9,"0","plants",TRUE,1,1678,"plural","item"
"1210",NA,163,10,"0","backpacks",FALSE,1,1986,"plural","nothing"
"1211",NA,163,11,"0","kites",TRUE,1,2031,"lexical","nothing"
"1212",NA,163,12,"0","trumpets",TRUE,0,2961,"lexical","item"
"1213",NA,163,13,"0","keys",TRUE,1,1558,"lexical","nothing"
"1214",NA,163,14,"0","envelopes",FALSE,0,330,"plural","item"
"1215",NA,163,15,"0","baskets",TRUE,1,1598,"plural","item"
"1216",NA,163,16,"0","bows",TRUE,1,1594,"lexical","nothing"
"1217",NA,163,17,"0","oranges",TRUE,1,1404,"plural","item"
"1218",NA,163,18,"0","forks",TRUE,1,939,"plural","item"
"1219",NA,163,19,"0","dolls",TRUE,1,1078,"plural","item"
"1220",NA,163,20,"0","daisies",TRUE,0,2630,"plural","nothing"
"1221",NA,163,21,"0","scissors",TRUE,1,1528,"plural","item"
"1222",NA,163,22,"0","bananas",TRUE,1,4925,"plural","item"
"1223",NA,163,23,"0","phones",TRUE,0,1790,"plural","nothing"
"1224",NA,163,24,"0","dogs",FALSE,1,2990,"plural","nothing"
"1225",NA,163,25,"0","cats",FALSE,1,1869,"lexical","item"
"1226",NA,163,26,"0","donuts",FALSE,1,2714,"lexical","item"
"1227",NA,163,27,"0","lollipops",FALSE,1,2521,"plural","nothing"
"1228",NA,163,28,"0","beach balls",FALSE,1,4541,"lexical","item"
"1229",NA,163,29,"0","guitars",TRUE,1,1171,"plural","item"
"1230",NA,163,30,"0","shovels",FALSE,1,1731,"plural","nothing"
"1231",NA,163,31,"0","rainboots",TRUE,1,1738,"lexical","nothing"
"1232",NA,163,32,"0","flashlights",FALSE,1,4633,"lexical","item"
"1233",NA,163,33,"0","fish",FALSE,1,1991,"plural","nothing"
"1234",NA,163,34,"0","purses",TRUE,1,982,"plural","item"
"1235",NA,163,35,"0","ice cream",TRUE,1,2014,"lexical","nothing"
"1236",NA,163,36,"0","pie",FALSE,1,1224,"lexical","item"
"1237",NA,163,37,"0","bears",TRUE,1,1720,"plural","item"
"1238",NA,163,38,"0","spoons",TRUE,1,3404,"lexical","nothing"
"1239",NA,163,39,"0","umbrellas",TRUE,1,1141,"lexical","nothing"
"1240",NA,163,40,"0","apples",TRUE,0,2345,"lexical","item"
"1241",NA,163,41,"0","flowers",FALSE,1,2270,"plural","nothing"
"1242",NA,163,42,"0","balloons",TRUE,1,1043,"lexical","nothing"
"1243",NA,163,43,"0","cakes",TRUE,1,1198,"lexical","nothing"
"1244",NA,163,44,"0","carrots",FALSE,1,1955,"plural","nothing"
"1245",NA,163,45,"0","tennis balls",TRUE,1,2567,"lexical","nothing"
"1246",NA,163,46,"0","coffee",FALSE,1,2321,"plural","nothing"
"1247",NA,163,47,"0","pencils",TRUE,1,1631,"lexical","nothing"
"1248",NA,163,48,"0","cookies",FALSE,1,3366,"lexical","item"
"1249",NA,214,1,"0","crayons",FALSE,0,2336,"lexical","nothing"
"1250",NA,214,2,"0","apples",TRUE,1,1821,"plural","item"
"1251",NA,214,3,"0","rainboots",TRUE,1,1393,"lexical","nothing"
"1252",NA,214,4,"0","daisies",FALSE,1,1864,"lexical","item"
"1253",NA,214,5,"0","tennis balls",TRUE,1,1384,"lexical","nothing"
"1254",NA,214,6,"0","dolls",TRUE,0,1470,"lexical","item"
"1255",NA,214,7,"0","oranges",TRUE,0,1380,"plural","nothing"
"1256",NA,214,8,"0","umbrellas",FALSE,1,1572,"plural","nothing"
"1257",NA,214,9,"0","dogs",TRUE,1,1342,"lexical","nothing"
"1258",NA,214,10,"0","purses",TRUE,1,1544,"plural","item"
"1259",NA,214,11,"0","guitars",FALSE,1,1154,"plural","nothing"
"1260",NA,214,12,"0","bows",FALSE,1,1720,"lexical","item"
"1261",NA,214,13,"0","pencils",TRUE,1,1215,"plural","item"
"1262",NA,214,14,"0","plants",TRUE,1,1359,"lexical","nothing"
"1263",NA,214,15,"0","mittens",FALSE,1,1572,"lexical","item"
"1264",NA,214,16,"0","keys",FALSE,1,1508,"lexical","item"
"1265",NA,214,17,"0","buckets",FALSE,1,1355,"lexical","item"
"1266",NA,214,18,"0","shovels",TRUE,1,1197,"plural","item"
"1267",NA,214,19,"0","coffee",TRUE,1,1293,"lexical","nothing"
"1268",NA,214,20,"0","beach balls",TRUE,1,1328,"plural","item"
"1269",NA,214,21,"0","carrots",TRUE,1,1556,"lexical","nothing"
"1270",NA,214,22,"0","notebooks",TRUE,1,1386,"lexical","nothing"
"1271",NA,214,23,"0","spoons",FALSE,1,1246,"lexical","item"
"1272",NA,214,24,"0","cars",FALSE,1,1391,"plural","nothing"
"1273",NA,214,25,"0","flashlights",TRUE,1,1105,"plural","item"
"1274",NA,214,26,"0","bowls",FALSE,1,979,"lexical","item"
"1275",NA,214,27,"0","salads",TRUE,1,905,"plural","item"
"1276",NA,214,28,"0","bananas",FALSE,1,1103,"plural","nothing"
"1277",NA,214,29,"0","lollipops",FALSE,1,1010,"lexical","item"
"1278",NA,214,30,"0","forks",FALSE,0,1027,"lexical","nothing"
"1279",NA,214,31,"0","envelopes",TRUE,1,973,"plural","item"
"1280",NA,214,32,"0","donuts",TRUE,1,1169,"lexical","nothing"
"1281",NA,214,33,"0","ice cream",FALSE,1,1031,"lexical","item"
"1282",NA,214,34,"0","fish",TRUE,1,1000,"lexical","nothing"
"1283",NA,214,35,"0","flowers",FALSE,1,1451,"plural","nothing"
"1284",NA,214,36,"0","phones",FALSE,1,1408,"lexical","item"
"1285",NA,214,37,"0","cakes",TRUE,1,1145,"plural","item"
"1286",NA,214,38,"0","cats",TRUE,1,1147,"plural","item"
"1287",NA,214,39,"0","baskets",FALSE,1,1035,"plural","nothing"
"1288",NA,214,40,"0","bears",FALSE,1,2135,"plural","nothing"
"1289",NA,214,41,"0","pie",FALSE,1,1171,"plural","nothing"
"1290",NA,214,42,"0","balloons",TRUE,1,1069,"plural","item"
"1291",NA,214,43,"0","scissors",TRUE,1,1398,"lexical","nothing"
"1292",NA,214,44,"0","cookies",FALSE,1,1047,"plural","nothing"
"1293",NA,214,45,"0","backpacks",FALSE,1,1364,"plural","nothing"
"1294",NA,214,46,"0","trumpets",FALSE,1,1664,"lexical","item"
"1295",NA,214,47,"0","presents",TRUE,1,920,"plural","item"
"1296",NA,214,48,"0","kites",FALSE,1,1222,"plural","nothing"
"1297",NA,40,1,"1","apples",FALSE,1,1500,"plural","nothing"
"1298",NA,40,2,"1","flashlights",FALSE,1,1132,"plural","nothing"
"1299",NA,40,3,"1","kites",TRUE,1,968,"plural","item"
"1300",NA,40,4,"1","buckets",TRUE,0,814,"lexical","item"
"1301",NA,40,5,"1","ice cream",FALSE,1,1013,"lexical","item"
"1302",NA,40,6,"1","dogs",FALSE,1,1056,"lexical","item"
"1303",NA,40,7,"1","plants",TRUE,1,1539,"lexical","nothing"
"1304",NA,40,8,"1","daisies",TRUE,1,1025,"lexical","nothing"
"1305",NA,40,9,"1","cats",TRUE,1,871,"lexical","nothing"
"1306",NA,40,10,"1","scissors",FALSE,1,792,"plural","nothing"
"1307",NA,40,11,"1","guitars",FALSE,1,1208,"plural","nothing"
"1308",NA,40,12,"1","coffee",FALSE,1,1082,"lexical","item"
"1309",NA,40,13,"1","cakes",FALSE,1,1037,"lexical","item"
"1310",NA,40,14,"1","fish",TRUE,1,1353,"lexical","nothing"
"1311",NA,40,15,"1","phones",TRUE,1,1239,"plural","item"
"1312",NA,40,16,"1","baskets",TRUE,1,760,"lexical","nothing"
"1313",NA,40,17,"1","bears",FALSE,1,811,"plural","nothing"
"1314",NA,40,18,"1","lollipops",TRUE,1,989,"lexical","nothing"
"1315",NA,40,19,"1","forks",FALSE,0,837,"plural","item"
"1316",NA,40,20,"1","trumpets",TRUE,0,1025,"plural","nothing"
"1317",NA,40,21,"1","purses",FALSE,1,1880,"plural","nothing"
"1318",NA,40,22,"1","backpacks",FALSE,1,1060,"lexical","item"
"1319",NA,40,23,"1","dolls",TRUE,1,1017,"plural","item"
"1320",NA,40,24,"1","mittens",TRUE,1,1346,"lexical","nothing"
"1321",NA,40,25,"1","cookies",FALSE,1,1335,"lexical","item"
"1322",NA,40,26,"1","umbrellas",FALSE,1,984,"plural","nothing"
"1323",NA,40,27,"1","bowls",TRUE,1,944,"lexical","nothing"
"1324",NA,40,28,"1","presents",FALSE,1,987,"plural","nothing"
"1325",NA,40,29,"1","pencils",FALSE,1,959,"plural","nothing"
"1326",NA,40,30,"1","balloons",FALSE,1,936,"lexical","item"
"1327",NA,40,31,"1","bows",TRUE,1,846,"plural","item"
"1328",NA,40,32,"1","bananas",TRUE,1,832,"plural","item"
"1329",NA,40,33,"1","shovels",FALSE,1,817,"lexical","item"
"1330",NA,40,34,"1","flowers",FALSE,0,1538,"lexical","nothing"
"1331",NA,40,35,"1","crayons",TRUE,1,720,"plural","item"
"1332",NA,40,36,"1","beach balls",TRUE,1,1144,"plural","item"
"1333",NA,40,37,"1","pie",FALSE,1,1007,"lexical","item"
"1334",NA,40,38,"1","donuts",TRUE,1,1143,"lexical","nothing"
"1335",NA,40,39,"1","keys",FALSE,1,960,"lexical","item"
"1336",NA,40,40,"1","tennis balls",FALSE,1,1668,"lexical","item"
"1337",NA,40,41,"1","oranges",TRUE,1,898,"plural","item"
"1338",NA,40,42,"1","notebooks",FALSE,1,1172,"plural","nothing"
"1339",NA,40,43,"1","spoons",TRUE,1,949,"lexical","nothing"
"1340",NA,40,44,"1","rainboots",TRUE,1,1331,"plural","item"
"1341",NA,40,45,"1","carrots",TRUE,1,601,"plural","item"
"1342",NA,40,46,"1","envelopes",TRUE,1,1346,"lexical","nothing"
"1343",NA,40,47,"1","salads",FALSE,1,3535,"plural","nothing"
"1344",NA,40,48,"1","cars",TRUE,1,472,"plural","item"
"1345",NA,229,1,"1","cookies",FALSE,1,2029,"plural","nothing"
"1346",NA,229,2,"1","notebooks",TRUE,1,1665,"lexical","nothing"
"1347",NA,229,3,"1","donuts",FALSE,1,2183,"plural","nothing"
"1348",NA,229,4,"1","ice cream",FALSE,1,1672,"lexical","item"
"1349",NA,229,5,"1","bowls",FALSE,1,1321,"lexical","item"
"1350",NA,229,6,"1","scissors",TRUE,1,1360,"lexical","nothing"
"1351",NA,229,7,"1","kites",FALSE,1,1341,"lexical","item"
"1352",NA,229,8,"1","crayons",TRUE,1,1471,"plural","item"
"1353",NA,229,9,"1","flowers",TRUE,1,1567,"plural","item"
"1354",NA,229,10,"1","cars",TRUE,1,1110,"lexical","nothing"
"1355",NA,229,11,"1","coffee",TRUE,1,2446,"lexical","nothing"
"1356",NA,229,12,"1","bears",FALSE,1,1735,"plural","nothing"
"1357",NA,229,13,"1","keys",FALSE,1,1324,"lexical","item"
"1358",NA,229,14,"1","envelopes",TRUE,1,1055,"plural","item"
"1359",NA,229,15,"1","baskets",TRUE,1,1087,"plural","item"
"1360",NA,229,16,"1","dolls",TRUE,1,1170,"lexical","nothing"
"1361",NA,229,17,"1","flashlights",TRUE,1,914,"plural","item"
"1362",NA,229,18,"1","pie",TRUE,1,1013,"plural","item"
"1363",NA,229,19,"1","bananas",FALSE,1,1227,"lexical","item"
"1364",NA,229,20,"1","salads",FALSE,1,1464,"plural","nothing"
"1365",NA,229,21,"1","guitars",FALSE,1,1488,"lexical","item"
"1366",NA,229,22,"1","presents",TRUE,1,1090,"lexical","nothing"
"1367",NA,229,23,"1","forks",FALSE,1,1065,"plural","nothing"
"1368",NA,229,24,"1","balloons",FALSE,1,1228,"lexical","item"
"1369",NA,229,25,"1","spoons",TRUE,1,1054,"plural","item"
"1370",NA,229,26,"1","cats",FALSE,1,1137,"plural","nothing"
"1371",NA,229,27,"1","buckets",TRUE,1,1673,"lexical","nothing"
"1372",NA,229,28,"1","phones",FALSE,1,913,"plural","nothing"
"1373",NA,229,29,"1","carrots",FALSE,1,1870,"lexical","item"
"1374",NA,229,30,"1","daisies",TRUE,1,1061,"plural","item"
"1375",NA,229,31,"1","rainboots",TRUE,1,1165,"plural","item"
"1376",NA,229,32,"1","pencils",FALSE,1,888,"lexical","item"
"1377",NA,229,33,"1","plants",TRUE,1,1107,"lexical","nothing"
"1378",NA,229,34,"1","bows",FALSE,1,1494,"lexical","item"
"1379",NA,229,35,"1","backpacks",TRUE,1,1064,"lexical","nothing"
"1380",NA,229,36,"1","shovels",TRUE,1,1244,"plural","item"
"1381",NA,229,37,"1","beach balls",FALSE,1,1078,"plural","nothing"
"1382",NA,229,38,"1","apples",TRUE,1,1633,"lexical","nothing"
"1383",NA,229,39,"1","trumpets",FALSE,1,1997,"plural","nothing"
"1384",NA,229,40,"1","tennis balls",TRUE,1,1253,"plural","item"
"1385",NA,229,41,"1","purses",FALSE,1,1584,"plural","nothing"
"1386",NA,229,42,"1","cakes",TRUE,1,1137,"plural","item"
"1387",NA,229,43,"1","umbrellas",FALSE,1,1262,"lexical","item"
"1388",NA,229,44,"1","lollipops",TRUE,1,1383,"lexical","nothing"
"1389",NA,229,45,"1","fish",FALSE,1,1350,"plural","nothing"
"1390",NA,229,46,"1","dogs",TRUE,1,1821,"lexical","nothing"
"1391",NA,229,47,"1","oranges",FALSE,1,961,"plural","nothing"
"1392",NA,229,48,"1","mittens",FALSE,1,1471,"lexical","item"
"1393",NA,228,1,"1","oranges",TRUE,1,2440,"plural","item"
"1394",NA,228,2,"1","envelopes",FALSE,1,1544,"plural","nothing"
"1395",NA,228,3,"1","tennis balls",TRUE,1,1576,"plural","item"
"1396",NA,228,4,"1","ice cream",FALSE,1,1653,"plural","nothing"
"1397",NA,228,5,"1","flashlights",TRUE,0,1488,"lexical","item"
"1398",NA,228,6,"1","kites",FALSE,1,1825,"lexical","item"
"1399",NA,228,7,"1","phones",FALSE,1,1810,"lexical","item"
"1400",NA,228,8,"1","apples",FALSE,1,1108,"lexical","item"
"1401",NA,228,9,"1","pie",FALSE,1,1653,"plural","nothing"
"1402",NA,228,10,"1","fish",FALSE,1,1654,"lexical","item"
"1403",NA,228,11,"1","balloons",FALSE,1,1794,"lexical","item"
"1404",NA,228,12,"1","notebooks",TRUE,1,2761,"plural","item"
"1405",NA,228,13,"1","mittens",TRUE,1,1887,"plural","item"
"1406",NA,228,14,"1","buckets",FALSE,1,1753,"plural","nothing"
"1407",NA,228,15,"1","presents",FALSE,1,2464,"lexical","item"
"1408",NA,228,16,"1","bears",TRUE,1,2606,"lexical","nothing"
"1409",NA,228,17,"1","scissors",FALSE,1,1996,"plural","nothing"
"1410",NA,228,18,"1","keys",TRUE,1,2465,"lexical","nothing"
"1411",NA,228,19,"1","purses",TRUE,1,2481,"lexical","nothing"
"1412",NA,228,20,"1","forks",FALSE,1,1357,"plural","nothing"
"1413",NA,228,21,"1","cookies",TRUE,1,1404,"plural","item"
"1414",NA,228,22,"1","dolls",TRUE,1,1887,"lexical","nothing"
"1415",NA,228,23,"1","pencils",TRUE,1,1545,"plural","item"
"1416",NA,228,24,"1","flowers",TRUE,1,1840,"lexical","nothing"
"1417",NA,228,25,"1","rainboots",TRUE,1,2512,"lexical","nothing"
"1418",NA,228,26,"1","guitars",TRUE,1,2168,"lexical","nothing"
"1419",NA,228,27,"1","spoons",TRUE,1,1685,"lexical","nothing"
"1420",NA,228,28,"1","daisies",FALSE,1,1623,"lexical","item"
"1421",NA,228,29,"1","umbrellas",FALSE,1,1950,"lexical","item"
"1422",NA,228,30,"1","trumpets",TRUE,1,1887,"lexical","nothing"
"1423",NA,228,31,"1","crayons",FALSE,1,1966,"plural","nothing"
"1424",NA,228,32,"1","cars",TRUE,1,1170,"plural","item"
"1425",NA,228,33,"1","shovels",FALSE,1,1887,"plural","nothing"
"1426",NA,228,34,"1","donuts",TRUE,1,1108,"plural","item"
"1427",NA,228,35,"1","bowls",TRUE,1,2003,"plural","item"
"1428",NA,228,36,"1","backpacks",FALSE,1,2355,"plural","nothing"
"1429",NA,228,37,"1","cats",TRUE,1,1748,"lexical","nothing"
"1430",NA,228,38,"1","salads",TRUE,1,1466,"plural","item"
"1431",NA,228,39,"1","plants",TRUE,1,1435,"lexical","nothing"
"1432",NA,228,40,"1","carrots",FALSE,1,1529,"plural","nothing"
"1433",NA,228,41,"1","lollipops",FALSE,1,1591,"plural","nothing"
"1434",NA,228,42,"1","baskets",FALSE,1,2871,"lexical","item"
"1435",NA,228,43,"1","beach balls",FALSE,1,1856,"lexical","item"
"1436",NA,228,44,"1","cakes",TRUE,1,1513,"lexical","nothing"
"1437",NA,228,45,"1","dogs",FALSE,1,1950,"plural","nothing"
"1438",NA,228,46,"1","bows",TRUE,1,2200,"plural","item"
"1439",NA,228,47,"1","bananas",TRUE,1,1201,"plural","item"
"1440",NA,228,48,"1","coffee",FALSE,1,1919,"lexical","item"
"1441",NA,152,1,"1","cakes",TRUE,1,2237,"lexical","nothing"
"1442",NA,152,2,"1","carrots",TRUE,1,2479,"lexical","nothing"
"1443",NA,152,3,"1","bears",FALSE,1,1614,"plural","nothing"
"1444",NA,152,4,"1","rainboots",TRUE,1,2033,"plural","item"
"1445",NA,152,5,"1","cats",TRUE,1,1388,"lexical","nothing"
"1446",NA,152,6,"1","fish",FALSE,1,1597,"lexical","item"
"1447",NA,152,7,"1","forks",TRUE,1,2149,"lexical","nothing"
"1448",NA,152,8,"1","dogs",TRUE,1,2348,"plural","item"
"1449",NA,152,9,"1","ice cream",FALSE,1,2336,"lexical","item"
"1450",NA,152,10,"1","scissors",FALSE,1,1946,"plural","nothing"
"1451",NA,152,11,"1","kites",TRUE,1,1241,"plural","item"
"1452",NA,152,12,"1","notebooks",FALSE,1,3442,"lexical","item"
"1453",NA,152,13,"1","purses",FALSE,1,1966,"lexical","item"
"1454",NA,152,14,"1","bows",TRUE,1,1508,"plural","item"
"1455",NA,152,15,"1","umbrellas",TRUE,1,1825,"plural","item"
"1456",NA,152,16,"1","pencils",TRUE,1,1232,"plural","item"
"1457",NA,152,17,"1","dolls",TRUE,1,1559,"lexical","nothing"
"1458",NA,152,18,"1","donuts",FALSE,1,2066,"lexical","item"
"1459",NA,152,19,"1","pie",FALSE,1,3310,"plural","nothing"
"1460",NA,152,20,"1","phones",FALSE,1,1770,"lexical","item"
"1461",NA,152,21,"1","apples",TRUE,1,1470,"plural","item"
"1462",NA,152,22,"1","shovels",FALSE,1,2284,"plural","nothing"
"1463",NA,152,23,"1","oranges",TRUE,1,1292,"plural","item"
"1464",NA,152,24,"1","envelopes",TRUE,1,2124,"lexical","nothing"
"1465",NA,152,25,"1","keys",TRUE,1,1671,"plural","item"
"1466",NA,152,26,"1","backpacks",TRUE,1,1208,"lexical","nothing"
"1467",NA,152,27,"1","presents",TRUE,1,1385,"lexical","nothing"
"1468",NA,152,28,"1","tennis balls",FALSE,1,1480,"plural","nothing"
"1469",NA,152,29,"1","bowls",FALSE,1,2772,"plural","nothing"
"1470",NA,152,30,"1","spoons",TRUE,1,2205,"lexical","nothing"
"1471",NA,152,31,"1","daisies",TRUE,1,1410,"plural","item"
"1472",NA,152,32,"1","flowers",FALSE,1,1641,"lexical","item"
"1473",NA,152,33,"1","cookies",FALSE,1,1878,"plural","nothing"
"1474",NA,152,34,"1","baskets",FALSE,1,1600,"lexical","item"
"1475",NA,152,35,"1","beach balls",TRUE,1,1762,"plural","item"
"1476",NA,152,36,"1","trumpets",FALSE,1,1827,"lexical","item"
"1477",NA,152,37,"1","bananas",TRUE,1,1352,"plural","item"
"1478",NA,152,38,"1","flashlights",FALSE,1,1917,"plural","nothing"
"1479",NA,152,39,"1","salads",TRUE,1,2511,"lexical","nothing"
"1480",NA,152,40,"1","plants",FALSE,1,1569,"lexical","item"
"1481",NA,152,41,"1","guitars",TRUE,1,1549,"lexical","nothing"
"1482",NA,152,42,"1","buckets",FALSE,1,1954,"plural","nothing"
"1483",NA,152,43,"1","balloons",TRUE,1,1440,"lexical","nothing"
"1484",NA,152,44,"1","cars",FALSE,1,1342,"plural","nothing"
"1485",NA,152,45,"1","lollipops",FALSE,1,1549,"plural","nothing"
"1486",NA,152,46,"1","mittens",FALSE,1,1340,"plural","nothing"
"1487",NA,152,47,"1","crayons",FALSE,1,2917,"lexical","item"
"1488",NA,152,48,"1","coffee",FALSE,1,2027,"lexical","item"
"1489",NA,151,1,"1","keys",FALSE,1,2792,"plural","nothing"
"1490",NA,151,2,"1","cats",TRUE,1,2402,"lexical","nothing"
"1491",NA,151,3,"1","pencils",TRUE,0,2075,"lexical","item"
"1492",NA,151,4,"1","trumpets",TRUE,1,3073,"plural","item"
"1493",NA,151,5,"1","forks",FALSE,1,4882,"lexical","item"
"1494",NA,151,6,"1","fish",FALSE,1,2777,"lexical","item"
"1495",NA,151,7,"1","buckets",TRUE,0,3447,"plural","nothing"
"1496",NA,151,8,"1","cookies",TRUE,1,2761,"plural","item"
"1497",NA,151,9,"1","shovels",FALSE,1,2246,"plural","nothing"
"1498",NA,151,10,"1","flashlights",FALSE,1,4385,"lexical","item"
"1499",NA,151,11,"1","notebooks",TRUE,1,3994,"lexical","nothing"
"1500",NA,151,12,"1","carrots",FALSE,1,3183,"lexical","item"
"1501",NA,151,13,"1","beach balls",FALSE,1,2527,"plural","nothing"
"1502",NA,151,14,"1","daisies",FALSE,1,1498,"plural","nothing"
"1503",NA,151,15,"1","pie",FALSE,1,1906,"plural","nothing"
"1504",NA,151,16,"1","cars",TRUE,1,4344,"lexical","nothing"
"1505",NA,151,17,"1","baskets",FALSE,0,1659,"plural","item"
"1506",NA,151,18,"1","rainboots",FALSE,1,1560,"plural","nothing"
"1507",NA,151,19,"1","spoons",TRUE,1,2324,"lexical","nothing"
"1508",NA,151,20,"1","flowers",TRUE,1,2589,"lexical","nothing"
"1509",NA,151,21,"1","kites",FALSE,1,3953,"lexical","item"
"1510",NA,151,22,"1","tennis balls",FALSE,1,1638,"plural","nothing"
"1511",NA,151,23,"1","guitars",TRUE,1,3067,"plural","item"
"1512",NA,151,24,"1","balloons",TRUE,1,4278,"lexical","nothing"
"1513",NA,151,25,"1","scissors",TRUE,1,2200,"plural","item"
"1514",NA,151,26,"1","salads",FALSE,1,4428,"lexical","item"
"1515",NA,151,27,"1","lollipops",FALSE,1,3523,"plural","nothing"
"1516",NA,151,28,"1","umbrellas",FALSE,1,1358,"plural","nothing"
"1517",NA,151,29,"1","dolls",TRUE,1,3666,"lexical","nothing"
"1518",NA,151,30,"1","coffee",TRUE,1,2979,"plural","item"
"1519",NA,151,31,"1","bowls",FALSE,1,3011,"plural","nothing"
"1520",NA,151,32,"1","phones",FALSE,1,5493,"lexical","item"
"1521",NA,151,33,"1","apples",TRUE,1,1776,"plural","item"
"1522",NA,151,34,"1","crayons",TRUE,1,2006,"plural","item"
"1523",NA,151,35,"1","ice cream",FALSE,1,1653,"lexical","item"
"1524",NA,151,36,"1","plants",TRUE,1,3579,"plural","item"
"1525",NA,151,37,"1","bows",FALSE,0,1888,"lexical","nothing"
"1526",NA,151,38,"1","cakes",FALSE,1,4836,"plural","nothing"
"1527",NA,151,39,"1","oranges",TRUE,1,1950,"lexical","nothing"
"1528",NA,151,40,"1","purses",FALSE,1,1318,"lexical","item"
"1529",NA,151,41,"1","presents",TRUE,1,3697,"plural","item"
"1530",NA,151,42,"1","envelopes",FALSE,1,2106,"lexical","item"
"1531",NA,151,43,"1","donuts",TRUE,1,1888,"plural","item"
"1532",NA,151,44,"1","dogs",TRUE,1,1404,"plural","item"
"1533",NA,151,45,"1","bears",TRUE,1,3354,"lexical","nothing"
"1534",NA,151,46,"1","mittens",TRUE,1,2777,"lexical","nothing"
"1535",NA,151,47,"1","bananas",FALSE,1,4984,"lexical","item"
"1536",NA,151,48,"1","backpacks",TRUE,1,2664,"lexical","nothing"
"1537",NA,99,1,"2","balloons",TRUE,1,1392,"plural","item"
"1538",NA,99,2,"2","forks",FALSE,1,1273,"plural","nothing"
"1539",NA,99,3,"2","cookies",FALSE,1,1289,"lexical","item"
"1540",NA,99,4,"2","salads",TRUE,1,1018,"plural","item"
"1541",NA,99,5,"2","flowers",FALSE,0,938,"lexical","nothing"
"1542",NA,99,6,"2","scissors",FALSE,1,1316,"plural","nothing"
"1543",NA,99,7,"2","umbrellas",FALSE,1,1155,"plural","nothing"
"1544",NA,99,8,"2","tennis balls",FALSE,1,1107,"plural","nothing"
"1545",NA,99,9,"2","presents",FALSE,1,1154,"plural","nothing"
"1546",NA,99,10,"2","daisies",TRUE,1,859,"plural","item"
"1547",NA,99,11,"2","keys",FALSE,1,842,"plural","nothing"
"1548",NA,99,12,"2","envelopes",TRUE,1,771,"plural","item"
"1549",NA,99,13,"2","purses",FALSE,0,746,"lexical","nothing"
"1550",NA,99,14,"2","spoons",FALSE,0,986,"lexical","nothing"
"1551",NA,99,15,"2","guitars",TRUE,1,1078,"plural","item"
"1552",NA,99,16,"2","kites",FALSE,1,1111,"lexical","item"
"1553",NA,99,17,"2","flashlights",FALSE,1,1652,"plural","nothing"
"1554",NA,99,18,"2","bears",FALSE,1,1378,"lexical","item"
"1555",NA,99,19,"2","trumpets",TRUE,1,1283,"lexical","nothing"
"1556",NA,99,20,"2","beach balls",FALSE,1,1235,"lexical","item"
"1557",NA,99,21,"2","pencils",FALSE,0,1203,"plural","item"
"1558",NA,99,22,"2","donuts",FALSE,1,1121,"lexical","item"
"1559",NA,99,23,"2","pie",FALSE,1,1708,"plural","nothing"
"1560",NA,99,24,"2","bowls",TRUE,1,1099,"lexical","nothing"
"1561",NA,99,25,"2","phones",FALSE,1,987,"lexical","item"
"1562",NA,99,26,"2","bananas",TRUE,1,1274,"plural","item"
"1563",NA,99,27,"2","baskets",FALSE,0,891,"plural","item"
"1564",NA,99,28,"2","apples",FALSE,1,1275,"lexical","item"
"1565",NA,99,29,"2","oranges",FALSE,1,1483,"plural","nothing"
"1566",NA,99,30,"2","plants",FALSE,1,1156,"lexical","item"
"1567",NA,99,31,"2","rainboots",TRUE,1,1099,"plural","item"
"1568",NA,99,32,"2","coffee",TRUE,1,1259,"plural","item"
"1569",NA,99,33,"2","cakes",FALSE,1,2011,"plural","nothing"
"1570",NA,99,34,"2","backpacks",FALSE,1,1179,"lexical","item"
"1571",NA,99,35,"2","crayons",TRUE,1,1866,"lexical","nothing"
"1572",NA,99,36,"2","dogs",TRUE,1,1499,"lexical","nothing"
"1573",NA,99,37,"2","cats",FALSE,1,1074,"plural","nothing"
"1574",NA,99,38,"2","cars",TRUE,1,2002,"lexical","nothing"
"1575",NA,99,39,"2","bows",TRUE,1,1377,"lexical","nothing"
"1576",NA,99,40,"2","notebooks",TRUE,1,1123,"lexical","nothing"
"1577",NA,99,41,"2","lollipops",TRUE,1,899,"lexical","nothing"
"1578",NA,99,42,"2","fish",TRUE,1,882,"plural","item"
"1579",NA,99,43,"2","buckets",FALSE,1,939,"lexical","item"
"1580",NA,99,44,"2","dolls",TRUE,0,994,"lexical","item"
"1581",NA,99,45,"2","carrots",TRUE,1,1096,"plural","item"
"1582",NA,99,46,"2","mittens",FALSE,1,1354,"lexical","item"
"1583",NA,99,47,"2","ice cream",TRUE,1,1395,"lexical","nothing"
"1584",NA,99,48,"2","shovels",FALSE,1,1250,"plural","nothing"
"1585",NA,242,1,"4","dogs",FALSE,1,1179,"plural","nothing"
"1586",NA,242,2,"4","dolls",FALSE,1,985,"lexical","item"
"1587",NA,242,3,"4","ice cream",TRUE,1,980,"lexical","nothing"
"1588",NA,242,4,"4","backpacks",TRUE,1,1174,"lexical","nothing"
"1589",NA,242,5,"4","shovels",TRUE,1,844,"lexical","nothing"
"1590",NA,242,6,"4","purses",FALSE,1,1080,"lexical","item"
"1591",NA,242,7,"4","pie",TRUE,1,1237,"lexical","nothing"
"1592",NA,242,8,"4","donuts",TRUE,1,1159,"plural","item"
"1593",NA,242,9,"4","scissors",FALSE,1,933,"plural","nothing"
"1594",NA,242,10,"4","cars",FALSE,1,1072,"lexical","item"
"1595",NA,242,11,"4","presents",FALSE,1,1196,"lexical","item"
"1596",NA,242,12,"4","rainboots",TRUE,1,1968,"plural","item"
"1597",NA,242,13,"4","beach balls",TRUE,1,1116,"plural","item"
"1598",NA,242,14,"4","bowls",FALSE,1,1139,"lexical","item"
"1599",NA,242,15,"4","guitars",FALSE,1,1706,"plural","nothing"
"1600",NA,242,16,"4","coffee",TRUE,1,974,"lexical","nothing"
"1601",NA,242,17,"4","buckets",TRUE,1,867,"lexical","nothing"
"1602",NA,242,18,"4","cats",FALSE,1,1021,"plural","nothing"
"1603",NA,242,19,"4","tennis balls",TRUE,1,859,"plural","item"
"1604",NA,242,20,"4","daisies",TRUE,1,877,"plural","item"
"1605",NA,242,21,"4","balloons",FALSE,0,935,"lexical","nothing"
"1606",NA,242,22,"4","phones",FALSE,1,846,"plural","nothing"
"1607",NA,242,23,"4","fish",TRUE,1,882,"plural","item"
"1608",NA,242,24,"4","umbrellas",FALSE,1,1096,"lexical","item"
"1609",NA,242,25,"4","crayons",TRUE,1,743,"plural","item"
"1610",NA,242,26,"4","apples",FALSE,1,1085,"lexical","item"
"1611",NA,242,27,"4","trumpets",TRUE,1,1218,"lexical","nothing"
"1612",NA,242,28,"4","cookies",TRUE,1,889,"plural","item"
"1613",NA,242,29,"4","cakes",FALSE,1,750,"plural","nothing"
"1614",NA,242,30,"4","plants",FALSE,1,714,"plural","nothing"
"1615",NA,242,31,"4","envelopes",FALSE,1,755,"lexical","item"
"1616",NA,242,32,"4","forks",FALSE,1,690,"plural","nothing"
"1617",NA,242,33,"4","mittens",FALSE,1,690,"plural","nothing"
"1618",NA,242,34,"4","keys",FALSE,1,790,"lexical","item"
"1619",NA,242,35,"4","carrots",FALSE,1,881,"plural","nothing"
"1620",NA,242,36,"4","salads",FALSE,1,837,"lexical","item"
"1621",NA,242,37,"4","oranges",TRUE,1,647,"plural","item"
"1622",NA,242,38,"4","baskets",FALSE,0,655,"lexical","nothing"
"1623",NA,242,39,"4","flowers",FALSE,0,1041,"lexical","nothing"
"1624",NA,242,40,"4","bananas",TRUE,1,1243,"lexical","nothing"
"1625",NA,242,41,"4","lollipops",FALSE,1,1132,"lexical","item"
"1626",NA,242,42,"4","notebooks",FALSE,1,1235,"lexical","item"
"1627",NA,242,43,"4","flashlights",FALSE,1,1010,"plural","nothing"
"1628",NA,242,44,"4","spoons",TRUE,1,1018,"lexical","nothing"
"1629",NA,242,45,"4","kites",TRUE,1,1248,"plural","item"
"1630",NA,242,46,"4","bears",TRUE,1,1105,"plural","item"
"1631",NA,242,47,"4","bows",FALSE,1,1999,"plural","nothing"
"1632",NA,242,48,"4","pencils",TRUE,1,951,"plural","item"
"1633",NA,134,1,"2","umbrellas",TRUE,1,1658,"plural","item"
"1634",NA,134,2,"2","spoons",TRUE,1,1320,"lexical","nothing"
"1635",NA,134,3,"2","fish",FALSE,1,965,"plural","nothing"
"1636",NA,134,4,"2","phones",FALSE,1,1425,"plural","nothing"
"1637",NA,134,5,"2","kites",TRUE,1,1251,"lexical","nothing"
"1638",NA,134,6,"2","donuts",TRUE,1,951,"lexical","nothing"
"1639",NA,134,7,"2","flowers",TRUE,1,852,"plural","item"
"1640",NA,134,8,"2","salads",FALSE,1,1012,"lexical","item"
"1641",NA,134,9,"2","guitars",FALSE,1,1283,"plural","nothing"
"1642",NA,134,10,"2","cakes",FALSE,1,1365,"plural","nothing"
"1643",NA,134,11,"2","buckets",FALSE,1,1397,"lexical","item"
"1644",NA,134,12,"2","balloons",FALSE,1,1428,"plural","nothing"
"1645",NA,134,13,"2","envelopes",TRUE,1,1030,"lexical","nothing"
"1646",NA,134,14,"2","dogs",FALSE,1,837,"plural","nothing"
"1647",NA,134,15,"2","dolls",TRUE,1,1130,"lexical","nothing"
"1648",NA,134,16,"2","daisies",TRUE,1,818,"lexical","nothing"
"1649",NA,134,17,"2","lollipops",TRUE,1,1381,"lexical","nothing"
"1650",NA,134,18,"2","ice cream",TRUE,1,1061,"plural","item"
"1651",NA,134,19,"2","tennis balls",TRUE,1,1782,"plural","item"
"1652",NA,134,20,"2","pie",TRUE,1,981,"lexical","nothing"
"1653",NA,134,21,"2","notebooks",TRUE,1,1013,"lexical","nothing"
"1654",NA,134,22,"2","beach balls",TRUE,1,933,"lexical","nothing"
"1655",NA,134,23,"2","carrots",FALSE,1,1269,"plural","nothing"
"1656",NA,134,24,"2","pencils",TRUE,1,918,"lexical","nothing"
"1657",NA,134,25,"2","crayons",TRUE,1,837,"plural","item"
"1658",NA,134,26,"2","plants",FALSE,1,965,"lexical","item"
"1659",NA,134,27,"2","bananas",FALSE,1,917,"lexical","item"
"1660",NA,134,28,"2","forks",TRUE,1,917,"plural","item"
"1661",NA,134,29,"2","coffee",TRUE,1,1591,"plural","item"
"1662",NA,134,30,"2","oranges",TRUE,1,788,"plural","item"
"1663",NA,134,31,"2","cookies",TRUE,1,1077,"plural","item"
"1664",NA,134,32,"2","shovels",FALSE,1,1285,"plural","nothing"
"1665",NA,134,33,"2","rainboots",FALSE,1,1029,"lexical","item"
"1666",NA,134,34,"2","keys",FALSE,1,789,"lexical","item"
"1667",NA,134,35,"2","presents",FALSE,1,1031,"plural","nothing"
