"","V1","subid","trial.num","context.condition","item","response","correct","rt","text.condition","image.condition"
"1",NA,162,1,"0","rainboots",FALSE,1,2030,"lexical","item"
"2",NA,162,2,"0","kites",TRUE,1,1807,"plural","item"
"3",NA,162,3,"0","fish",FALSE,1,2037,"plural","nothing"
"4",NA,162,4,"0","umbrellas",TRUE,1,1821,"lexical","nothing"
"5",NA,162,5,"0","shovels",TRUE,1,1394,"plural","item"
"6",NA,162,6,"0","carrots",TRUE,1,1576,"plural","item"
"7",NA,162,7,"0","presents",FALSE,1,1543,"lexical","item"
"8",NA,162,8,"0","cookies",TRUE,1,1367,"lexical","nothing"
"9",NA,162,9,"0","flowers",FALSE,1,1592,"lexical","item"
"10",NA,162,10,"0","cars",FALSE,1,2186,"plural","nothing"
"11",NA,162,11,"0","plants",FALSE,0,2578,"lexical","nothing"
"12",NA,162,12,"0","donuts",TRUE,1,1249,"plural","item"
"13",NA,162,13,"0","forks",FALSE,1,1371,"plural","nothing"
"14",NA,162,14,"0","dogs",TRUE,1,1877,"lexical","nothing"
"15",NA,162,15,"0","pencils",FALSE,1,1699,"lexical","item"
"16",NA,162,16,"0","purses",FALSE,1,1672,"plural","nothing"
"17",NA,162,17,"0","scissors",FALSE,1,1680,"lexical","item"
"18",NA,162,18,"0","phones",TRUE,1,1292,"plural","item"
"19",NA,162,19,"0","apples",FALSE,1,1309,"plural","nothing"
"20",NA,162,20,"0","daisies",FALSE,1,1530,"lexical","item"
"21",NA,162,21,"0","bows",TRUE,0,1962,"plural","nothing"
"22",NA,162,22,"0","mittens",TRUE,1,1735,"lexical","nothing"
"23",NA,162,23,"0","cakes",TRUE,1,1165,"lexical","nothing"
"24",NA,162,24,"0","bananas",FALSE,1,1540,"lexical","item"
"25",NA,162,25,"0","guitars",TRUE,1,1244,"plural","item"
"26",NA,162,26,"0","buckets",TRUE,1,1124,"plural","item"
"27",NA,162,27,"0","cats",TRUE,1,1283,"lexical","nothing"
"28",NA,162,28,"0","balloons",FALSE,1,1740,"plural","nothing"
"29",NA,37,1,"0","shovels",TRUE,1,1843,"plural","item"
"30",NA,37,2,"0","donuts",FALSE,1,2156,"lexical","item"
"31",NA,37,3,"0","flowers",TRUE,1,2578,"plural","item"
"32",NA,37,4,"0","mittens",TRUE,1,2094,"lexical","nothing"
"33",NA,37,5,"0","cars",FALSE,1,2109,"plural","nothing"
"34",NA,37,6,"0","bananas",TRUE,1,2015,"plural","item"
"35",NA,37,7,"0","carrots",FALSE,1,2016,"lexical","item"
"36",NA,37,8,"0","forks",TRUE,1,2094,"lexical","nothing"
"37",NA,37,9,"0","cakes",TRUE,1,1875,"plural","item"
"38",NA,37,10,"0","cookies",TRUE,1,2031,"lexical","nothing"
"39",NA,37,11,"0","buckets",FALSE,1,1937,"plural","nothing"
"40",NA,37,12,"0","apples",FALSE,1,1719,"plural","nothing"
"41",NA,37,13,"0","purses",FALSE,1,2359,"lexical","item"
"42",NA,37,14,"0","daisies",FALSE,1,2125,"lexical","item"
"43",NA,37,15,"0","guitars",FALSE,1,1375,"plural","nothing"
"44",NA,37,16,"0","balloons",FALSE,1,1656,"plural","nothing"
"45",NA,37,17,"0","bows",FALSE,0,2000,"plural","item"
"46",NA,37,18,"0","cats",FALSE,1,1937,"lexical","item"
"47",NA,37,19,"0","rainboots",TRUE,1,1969,"plural","item"
"48",NA,37,20,"0","dogs",TRUE,1,1797,"lexical","nothing"
"49",NA,37,21,"0","fish",FALSE,1,2078,"lexical","item"
"50",NA,37,22,"0","scissors",FALSE,1,1829,"lexical","item"
"51",NA,37,23,"0","phones",TRUE,1,1969,"lexical","nothing"
"52",NA,37,24,"0","presents",FALSE,1,2250,"plural","nothing"
"53",NA,37,25,"0","kites",TRUE,1,2079,"lexical","nothing"
"54",NA,37,26,"0","plants",TRUE,1,2781,"plural","item"
"55",NA,37,27,"0","umbrellas",TRUE,1,1734,"lexical","nothing"
"56",NA,37,28,"0","pencils",FALSE,1,2344,"plural","nothing"
"57",NA,168,1,"1","umbrellas",TRUE,1,2208,"lexical","nothing"
"58",NA,168,2,"1","pencils",FALSE,1,2087,"plural","nothing"
"59",NA,168,3,"1","rainboots",TRUE,1,1695,"lexical","nothing"
"60",NA,168,4,"1","forks",TRUE,1,2280,"plural","item"
"61",NA,168,5,"1","bananas",FALSE,1,1819,"plural","nothing"
"62",NA,168,6,"1","cookies",TRUE,1,1594,"lexical","nothing"
"63",NA,168,7,"1","purses",TRUE,1,1999,"lexical","nothing"
"64",NA,168,8,"1","scissors",FALSE,1,1493,"plural","nothing"
"65",NA,168,9,"1","phones",FALSE,1,2809,"lexical","item"
"66",NA,168,10,"1","cars",FALSE,1,1437,"lexical","item"
"67",NA,168,11,"1","donuts",TRUE,1,1369,"plural","item"
"68",NA,168,12,"1","flowers",FALSE,1,3315,"plural","nothing"
"69",NA,168,13,"1","guitars",FALSE,1,1808,"lexical","item"
"70",NA,168,14,"1","plants",TRUE,1,1346,"plural","item"
"71",NA,168,15,"1","cats",FALSE,1,1256,"lexical","item"
"72",NA,168,16,"1","daisies",FALSE,1,1358,"lexical","item"
"73",NA,168,17,"1","bows",TRUE,1,1818,"plural","item"
"74",NA,168,18,"1","cakes",FALSE,1,1504,"plural","nothing"
"75",NA,168,19,"1","mittens",FALSE,1,1526,"plural","nothing"
"76",NA,168,20,"1","fish",TRUE,1,1459,"plural","item"
"77",NA,168,21,"1","presents",TRUE,1,1447,"plural","item"
"78",NA,168,22,"1","apples",TRUE,1,1875,"lexical","nothing"
"79",NA,168,23,"1","carrots",FALSE,1,1616,"lexical","item"
"80",NA,168,24,"1","balloons",TRUE,1,1920,"lexical","nothing"
"81",NA,168,25,"1","buckets",FALSE,1,1436,"lexical","item"
"82",NA,168,26,"1","shovels",TRUE,1,1898,"lexical","nothing"
"83",NA,168,27,"1","dogs",FALSE,0,1481,"plural","item"
"84",NA,168,28,"1","kites",FALSE,1,1942,"plural","nothing"
"85",NA,26,1,"2","daisies",TRUE,1,2578,"plural","item"
"86",NA,26,2,"2","cakes",FALSE,1,1496,"lexical","item"
"87",NA,26,3,"2","flowers",TRUE,1,1600,"lexical","nothing"
"88",NA,26,4,"2","cookies",FALSE,1,1583,"plural","nothing"
"89",NA,26,5,"2","kites",FALSE,1,1662,"plural","nothing"
"90",NA,26,6,"2","cats",FALSE,1,1801,"plural","nothing"
"91",NA,26,7,"2","buckets",TRUE,1,1093,"plural","item"
"92",NA,26,8,"2","shovels",TRUE,1,1311,"plural","item"
"93",NA,26,9,"2","dogs",FALSE,1,1085,"lexical","item"
"94",NA,26,10,"2","plants",FALSE,1,1599,"lexical","item"
"95",NA,26,11,"2","presents",FALSE,1,988,"plural","nothing"
"96",NA,26,12,"2","phones",TRUE,1,2443,"lexical","nothing"
"97",NA,26,13,"2","pencils",FALSE,1,1794,"plural","nothing"
"98",NA,26,14,"2","fish",TRUE,1,1271,"lexical","nothing"
"99",NA,26,15,"2","umbrellas",TRUE,1,1259,"lexical","nothing"
"100",NA,26,16,"2","apples",TRUE,1,1931,"plural","item"
"101",NA,26,17,"2","bows",FALSE,1,1472,"plural","nothing"
"102",NA,26,18,"2","purses",TRUE,1,1329,"lexical","nothing"
"103",NA,26,19,"2","rainboots",TRUE,1,1234,"lexical","nothing"
"104",NA,26,20,"2","forks",FALSE,1,1110,"plural","nothing"
"105",NA,26,21,"2","cars",TRUE,1,1458,"lexical","nothing"
"106",NA,26,22,"2","bananas",FALSE,1,1334,"lexical","item"
"107",NA,26,23,"2","balloons",FALSE,1,1226,"lexical","item"
"108",NA,26,24,"2","guitars",TRUE,1,1250,"plural","item"
"109",NA,26,25,"2","carrots",TRUE,1,1521,"plural","item"
"110",NA,26,26,"2","mittens",TRUE,1,898,"plural","item"
"111",NA,26,27,"2","scissors",FALSE,1,960,"lexical","item"
"112",NA,26,28,"2","donuts",FALSE,1,1221,"lexical","item"
"113",NA,186,1,"3","cakes",FALSE,1,3074,"lexical","item"
"114",NA,186,2,"3","scissors",FALSE,1,2056,"plural","nothing"
"115",NA,186,3,"3","bananas",TRUE,1,1452,"lexical","nothing"
"116",NA,186,4,"3","mittens",FALSE,1,2262,"plural","nothing"
"117",NA,186,5,"3","forks",TRUE,1,1298,"plural","item"
"118",NA,186,6,"3","presents",FALSE,1,1309,"lexical","item"
"119",NA,186,7,"3","dogs",TRUE,1,1435,"plural","item"
"120",NA,186,8,"3","rainboots",FALSE,1,1775,"lexical","item"
"121",NA,186,9,"3","balloons",FALSE,1,1314,"lexical","item"
"122",NA,186,10,"3","pencils",FALSE,1,1114,"lexical","item"
"123",NA,186,11,"3","bows",FALSE,1,1482,"lexical","item"
"124",NA,186,12,"3","guitars",TRUE,1,1268,"plural","item"
"125",NA,186,13,"3","cats",TRUE,1,2032,"plural","item"
"126",NA,186,14,"3","fish",TRUE,1,2129,"lexical","nothing"
"127",NA,186,15,"3","umbrellas",TRUE,1,2032,"lexical","nothing"
"128",NA,186,16,"3","cookies",TRUE,1,1321,"plural","item"
"129",NA,186,17,"3","donuts",TRUE,1,1530,"lexical","nothing"
"130",NA,186,18,"3","cars",FALSE,1,1735,"plural","nothing"
"131",NA,186,19,"3","carrots",FALSE,1,2177,"plural","nothing"
"132",NA,186,20,"3","daisies",FALSE,1,1633,"plural","nothing"
"133",NA,186,21,"3","shovels",TRUE,1,2004,"plural","item"
"134",NA,186,22,"3","buckets",FALSE,1,1526,"plural","nothing"
"135",NA,186,23,"3","purses",TRUE,1,1851,"lexical","nothing"
"136",NA,186,24,"3","plants",TRUE,1,2153,"lexical","nothing"
"137",NA,186,25,"3","kites",FALSE,1,2045,"plural","nothing"
"138",NA,186,26,"3","flowers",TRUE,1,1646,"plural","item"
"139",NA,186,27,"3","apples",TRUE,1,1401,"lexical","nothing"
"140",NA,186,28,"3","phones",FALSE,1,2084,"lexical","item"
"141",NA,131,1,"3","shovels",TRUE,1,1571,"lexical","nothing"
"142",NA,131,2,"3","balloons",FALSE,1,2071,"plural","nothing"
"143",NA,131,3,"3","apples",TRUE,1,1557,"lexical","nothing"
"144",NA,131,4,"3","cars",FALSE,1,2221,"lexical","item"
"145",NA,131,5,"3","plants",FALSE,1,1828,"plural","nothing"
"146",NA,131,6,"3","carrots",TRUE,1,1974,"lexical","nothing"
"147",NA,131,7,"3","fish",FALSE,1,1429,"plural","nothing"
"148",NA,131,8,"3","dogs",FALSE,1,1476,"plural","nothing"
"149",NA,131,9,"3","guitars",FALSE,1,1525,"lexical","item"
"150",NA,131,10,"3","rainboots",FALSE,1,1581,"plural","nothing"
"151",NA,131,11,"3","purses",FALSE,1,2285,"lexical","item"
"152",NA,131,12,"3","pencils",FALSE,1,1229,"plural","nothing"
"153",NA,131,13,"3","buckets",TRUE,1,1430,"lexical","nothing"
"154",NA,131,14,"3","presents",TRUE,1,1917,"plural","item"
"155",NA,131,15,"3","daisies",FALSE,1,1461,"lexical","item"
"156",NA,131,16,"3","cats",TRUE,1,1620,"plural","item"
"157",NA,131,17,"3","umbrellas",TRUE,1,1251,"plural","item"
"158",NA,131,18,"3","forks",TRUE,1,1204,"plural","item"
"159",NA,131,19,"3","cakes",TRUE,1,1197,"plural","item"
"160",NA,131,20,"3","bananas",FALSE,1,1118,"lexical","item"
"161",NA,131,21,"3","phones",TRUE,1,1600,"lexical","nothing"
"162",NA,131,22,"3","mittens",TRUE,1,1365,"plural","item"
"163",NA,131,23,"3","flowers",TRUE,1,1675,"lexical","nothing"
"164",NA,131,24,"3","bows",FALSE,1,1684,"plural","nothing"
"165",NA,131,25,"3","kites",FALSE,1,1756,"lexical","item"
"166",NA,131,26,"3","donuts",TRUE,1,1481,"lexical","nothing"
"167",NA,131,27,"3","cookies",TRUE,1,1873,"plural","item"
"168",NA,131,28,"3","scissors",FALSE,1,1654,"lexical","item"
"169",NA,7,1,"0","bows",TRUE,1,7461,"plural","item"
"170",NA,7,2,"0","donuts",FALSE,1,2028,"lexical","item"
"171",NA,7,3,"0","phones",TRUE,1,1937,"plural","item"
"172",NA,7,4,"0","kites",TRUE,1,2069,"lexical","nothing"
"173",NA,7,5,"0","rainboots",TRUE,1,2116,"lexical","nothing"
"174",NA,7,6,"0","dogs",FALSE,1,1421,"plural","nothing"
"175",NA,7,7,"0","scissors",TRUE,0,1508,"plural","nothing"
"176",NA,7,8,"0","presents",FALSE,1,1766,"plural","nothing"
"177",NA,7,9,"0","cats",FALSE,1,1309,"plural","nothing"
"178",NA,7,10,"0","umbrellas",TRUE,1,1459,"plural","item"
"179",NA,7,11,"0","forks",FALSE,1,1532,"lexical","item"
"180",NA,7,12,"0","daisies",TRUE,1,1277,"plural","item"
"181",NA,7,13,"0","bananas",TRUE,1,1388,"lexical","nothing"
"182",NA,7,14,"0","guitars",FALSE,1,1444,"lexical","item"
"183",NA,7,15,"0","shovels",FALSE,1,1516,"lexical","item"
"184",NA,7,16,"0","cookies",FALSE,1,2781,"plural","nothing"
"185",NA,7,17,"0","cakes",TRUE,1,1196,"plural","item"
"186",NA,7,18,"0","apples",FALSE,1,1324,"lexical","item"
"187",NA,7,19,"0","plants",TRUE,1,1148,"plural","item"
"188",NA,7,20,"0","balloons",TRUE,1,4100,"lexical","nothing"
"189",NA,7,21,"0","pencils",FALSE,1,1123,"plural","nothing"
"190",NA,7,22,"0","cars",FALSE,1,1228,"lexical","item"
"191",NA,7,23,"0","mittens",FALSE,1,1692,"plural","nothing"
"192",NA,7,24,"0","fish",FALSE,1,2388,"lexical","item"
"193",NA,7,25,"0","flowers",TRUE,1,1692,"plural","item"
"194",NA,7,26,"0","purses",TRUE,1,1435,"lexical","nothing"
"195",NA,7,27,"0","buckets",TRUE,1,1461,"lexical","nothing"
"196",NA,7,28,"0","carrots",TRUE,1,4757,"lexical","nothing"
"197",NA,66,1,"1","forks",TRUE,1,2709,"plural","item"
"198",NA,66,2,"1","pencils",FALSE,1,2295,"lexical","item"
"199",NA,66,3,"1","scissors",TRUE,1,1892,"plural","item"
"200",NA,66,4,"1","plants",FALSE,1,1456,"plural","nothing"
"201",NA,66,5,"1","presents",FALSE,1,1401,"plural","nothing"
"202",NA,66,6,"1","rainboots",FALSE,1,1509,"plural","nothing"
"203",NA,66,7,"1","bows",FALSE,1,1876,"lexical","item"
"204",NA,66,8,"1","balloons",FALSE,1,1671,"plural","nothing"
"205",NA,66,9,"1","cats",FALSE,1,1649,"lexical","item"
"206",NA,66,10,"1","shovels",FALSE,1,1249,"lexical","item"
"207",NA,66,11,"1","bananas",TRUE,1,1250,"plural","item"
"208",NA,66,12,"1","purses",FALSE,1,2131,"lexical","item"
"209",NA,66,13,"1","dogs",TRUE,1,1256,"lexical","nothing"
"210",NA,66,14,"1","cakes",FALSE,1,1679,"plural","nothing"
"211",NA,66,15,"1","carrots",FALSE,1,2801,"plural","nothing"
"212",NA,66,16,"1","daisies",TRUE,1,1396,"lexical","nothing"
"213",NA,66,17,"1","apples",TRUE,1,1178,"lexical","nothing"
"214",NA,66,18,"1","kites",TRUE,1,1136,"plural","item"
"215",NA,66,19,"1","buckets",TRUE,1,1252,"plural","item"
"216",NA,66,20,"1","flowers",TRUE,1,2578,"plural","item"
"217",NA,66,21,"1","fish",TRUE,1,1728,"lexical","nothing"
"218",NA,66,22,"1","cookies",TRUE,1,1099,"lexical","nothing"
"219",NA,66,23,"1","umbrellas",FALSE,1,1319,"plural","nothing"
"220",NA,66,24,"1","phones",TRUE,1,1150,"lexical","nothing"
"221",NA,66,25,"1","mittens",TRUE,1,1159,"lexical","nothing"
"222",NA,66,26,"1","cars",TRUE,1,1102,"plural","item"
"223",NA,66,27,"1","guitars",FALSE,1,1289,"lexical","item"
"224",NA,66,28,"1","donuts",FALSE,1,1072,"lexical","item"
"225",NA,150,1,"2","cakes",FALSE,1,1730,"lexical","item"
"226",NA,150,2,"2","presents",TRUE,1,1691,"plural","item"
"227",NA,150,3,"2","daisies",FALSE,1,2143,"plural","nothing"
"228",NA,150,4,"2","plants",TRUE,1,1950,"plural","item"
"229",NA,150,5,"2","shovels",FALSE,0,1034,"plural","item"
"230",NA,150,6,"2","rainboots",FALSE,1,2460,"lexical","item"
"231",NA,150,7,"2","guitars",FALSE,1,2381,"lexical","item"
"232",NA,150,8,"2","umbrellas",FALSE,1,1228,"lexical","item"
"233",NA,150,9,"2","bananas",TRUE,1,3102,"plural","item"
"234",NA,150,10,"2","scissors",FALSE,1,1293,"plural","nothing"
"235",NA,150,11,"2","mittens",FALSE,1,1422,"lexical","item"
"236",NA,150,12,"2","buckets",FALSE,1,2140,"lexical","item"
"237",NA,150,13,"2","forks",FALSE,1,1183,"plural","nothing"
"238",NA,150,14,"2","cats",TRUE,1,1374,"lexical","nothing"
"239",NA,150,15,"2","cookies",FALSE,1,3390,"plural","nothing"
"240",NA,150,16,"2","flowers",TRUE,1,1404,"lexical","nothing"
"241",NA,150,17,"2","apples",TRUE,1,1489,"plural","item"
"242",NA,150,18,"2","balloons",TRUE,1,1119,"lexical","nothing"
"243",NA,150,19,"2","cars",FALSE,1,1470,"plural","nothing"
"244",NA,150,20,"2","carrots",TRUE,1,1388,"lexical","nothing"
"245",NA,150,21,"2","kites",FALSE,1,1581,"plural","nothing"
"246",NA,150,22,"2","bows",TRUE,1,1775,"lexical","nothing"
"247",NA,150,23,"2","donuts",TRUE,1,1629,"lexical","nothing"
"248",NA,150,24,"2","dogs",FALSE,1,1037,"lexical","item"
"249",NA,150,25,"2","phones",FALSE,1,1262,"plural","nothing"
"250",NA,150,26,"2","fish",TRUE,1,1151,"lexical","nothing"
"251",NA,150,27,"2","purses",TRUE,1,1997,"plural","item"
"252",NA,150,28,"2","pencils",TRUE,1,1165,"plural","item"
"253",NA,115,1,"2","dogs",FALSE,1,1395,"plural","nothing"
"254",NA,115,2,"2","guitars",TRUE,1,1005,"plural","item"
"255",NA,115,3,"2","flowers",TRUE,1,1380,"lexical","nothing"
"256",NA,115,4,"2","fish",TRUE,1,1250,"plural","item"
"257",NA,115,5,"2","buckets",FALSE,1,1075,"plural","nothing"
"258",NA,115,6,"2","umbrellas",FALSE,1,1381,"plural","nothing"
"259",NA,115,7,"2","bananas",FALSE,1,1240,"plural","nothing"
"260",NA,115,8,"2","presents",FALSE,1,2124,"lexical","item"
"261",NA,115,9,"2","rainboots",FALSE,1,1633,"plural","nothing"
"262",NA,115,10,"2","balloons",FALSE,1,1682,"lexical","item"
"263",NA,115,11,"2","carrots",TRUE,1,1472,"lexical","nothing"
"264",NA,115,12,"2","cookies",FALSE,1,1350,"lexical","item"
"265",NA,115,13,"2","cakes",TRUE,1,1169,"lexical","nothing"
"266",NA,115,14,"2","scissors",FALSE,1,1152,"lexical","item"
"267",NA,115,15,"2","shovels",TRUE,1,1401,"plural","item"
"268",NA,115,16,"2","apples",TRUE,1,1403,"lexical","nothing"
"269",NA,115,17,"2","pencils",FALSE,1,1392,"lexical","item"
"270",NA,115,18,"2","purses",TRUE,1,1468,"plural","item"
"271",NA,115,19,"2","bows",FALSE,1,1757,"plural","nothing"
"272",NA,115,20,"2","cats",TRUE,1,1014,"lexical","nothing"
"273",NA,115,21,"2","mittens",TRUE,1,1246,"plural","item"
"274",NA,115,22,"2","cars",TRUE,1,1200,"lexical","nothing"
"275",NA,115,23,"2","forks",TRUE,1,1185,"plural","item"
"276",NA,115,24,"2","kites",FALSE,1,1423,"lexical","item"
"277",NA,115,25,"2","plants",FALSE,1,1247,"plural","nothing"
"278",NA,115,26,"2","daisies",TRUE,1,1166,"lexical","nothing"
"279",NA,115,27,"2","phones",FALSE,1,1319,"lexical","item"
"280",NA,115,28,"2","donuts",TRUE,1,1341,"plural","item"
"281",NA,8,1,"2","rainboots",TRUE,1,3931,"plural","item"
"282",NA,8,2,"2","cookies",FALSE,1,2685,"plural","nothing"
"283",NA,8,3,"2","umbrellas",FALSE,1,2950,"plural","nothing"
"284",NA,8,4,"2","purses",TRUE,1,1813,"lexical","nothing"
"285",NA,8,5,"2","cats",TRUE,1,1556,"plural","item"
"286",NA,8,6,"2","kites",FALSE,1,1997,"lexical","item"
"287",NA,8,7,"2","guitars",FALSE,1,2096,"lexical","item"
"288",NA,8,8,"2","pencils",TRUE,1,1742,"plural","item"
"289",NA,8,9,"2","cars",FALSE,1,1449,"lexical","item"
"290",NA,8,10,"2","bows",TRUE,1,3069,"lexical","nothing"
"291",NA,8,11,"2","carrots",TRUE,1,2038,"plural","item"
"292",NA,8,12,"2","buckets",FALSE,1,1807,"plural","nothing"
"293",NA,8,13,"2","mittens",TRUE,1,1805,"lexical","nothing"
"294",NA,8,14,"2","donuts",TRUE,1,1627,"plural","item"
"295",NA,8,15,"2","fish",TRUE,1,1638,"lexical","nothing"
"296",NA,8,16,"2","daisies",FALSE,1,1655,"plural","nothing"
"297",NA,8,17,"2","forks",TRUE,1,1438,"plural","item"
"298",NA,8,18,"2","dogs",FALSE,0,1150,"lexical","nothing"
"299",NA,8,19,"2","phones",TRUE,1,1717,"plural","item"
"300",NA,8,20,"2","flowers",TRUE,1,2327,"lexical","nothing"
"301",NA,8,21,"2","scissors",FALSE,1,1646,"plural","nothing"
"302",NA,8,22,"2","bananas",FALSE,1,1917,"plural","nothing"
"303",NA,8,23,"2","apples",TRUE,1,1926,"lexical","nothing"
"304",NA,8,24,"2","presents",FALSE,1,3215,"lexical","item"
"305",NA,8,25,"2","plants",FALSE,1,1944,"lexical","item"
"306",NA,8,26,"2","cakes",FALSE,1,1799,"plural","nothing"
"307",NA,8,27,"2","shovels",TRUE,0,1768,"lexical","item"
"308",NA,8,28,"2","balloons",FALSE,1,3240,"lexical","item"
"309",NA,62,1,"3","pencils",FALSE,1,1997,"lexical","item"
"310",NA,62,2,"3","fish",TRUE,1,1504,"plural","item"
"311",NA,62,3,"3","donuts",FALSE,1,1511,"lexical","item"
"312",NA,62,4,"3","daisies",TRUE,1,1427,"plural","item"
"313",NA,62,5,"3","balloons",TRUE,1,769,"plural","item"
"314",NA,62,6,"3","flowers",TRUE,1,961,"plural","item"
"315",NA,62,7,"3","cakes",FALSE,1,1749,"plural","nothing"
"316",NA,62,8,"3","buckets",FALSE,1,1574,"plural","nothing"
"317",NA,62,9,"3","shovels",FALSE,1,1548,"lexical","item"
"318",NA,62,10,"3","forks",TRUE,1,1246,"lexical","nothing"
"319",NA,62,11,"3","guitars",FALSE,1,1245,"lexical","item"
"320",NA,62,12,"3","kites",TRUE,1,1087,"lexical","nothing"
"321",NA,62,13,"3","bananas",TRUE,1,972,"lexical","nothing"
"322",NA,62,14,"3","purses",FALSE,1,1438,"lexical","item"
"323",NA,62,15,"3","carrots",FALSE,1,1151,"lexical","item"
"324",NA,62,16,"3","apples",FALSE,1,1537,"lexical","item"
"325",NA,62,17,"3","plants",TRUE,1,983,"lexical","nothing"
"326",NA,62,18,"3","cats",TRUE,1,1780,"plural","item"
"327",NA,62,19,"3","mittens",TRUE,1,1203,"plural","item"
"328",NA,62,20,"3","phones",FALSE,1,1145,"plural","nothing"
"329",NA,62,21,"3","umbrellas",FALSE,1,1538,"plural","nothing"
"330",NA,62,22,"3","cars",FALSE,1,1141,"plural","nothing"
"331",NA,62,23,"3","bows",TRUE,1,1643,"lexical","nothing"
"332",NA,62,24,"3","presents",TRUE,1,1695,"plural","item"
"333",NA,62,25,"3","cookies",TRUE,1,1048,"lexical","nothing"
"334",NA,62,26,"3","dogs",TRUE,0,945,"plural","nothing"
"335",NA,62,27,"3","scissors",FALSE,1,1250,"plural","nothing"
"336",NA,62,28,"3","rainboots",TRUE,1,1820,"lexical","nothing"
"337",NA,144,1,"0","fish",FALSE,1,1331,"plural","nothing"
"338",NA,144,2,"0","purses",FALSE,1,1566,"lexical","item"
"339",NA,144,3,"0","plants",TRUE,1,1428,"plural","item"
"340",NA,144,4,"0","apples",TRUE,1,1065,"plural","item"
"341",NA,144,5,"0","flowers",FALSE,1,1075,"lexical","item"
"342",NA,144,6,"0","balloons",FALSE,0,1266,"lexical","nothing"
"343",NA,144,7,"0","dogs",FALSE,1,855,"plural","nothing"
"344",NA,144,8,"0","guitars",FALSE,1,1057,"plural","nothing"
"345",NA,144,9,"0","pencils",FALSE,1,1334,"lexical","item"
"346",NA,144,10,"0","cars",FALSE,1,1423,"plural","nothing"
"347",NA,144,11,"0","kites",FALSE,1,1169,"plural","nothing"
"348",NA,144,12,"0","daisies",TRUE,1,1401,"lexical","nothing"
"349",NA,144,13,"0","bananas",FALSE,1,1237,"lexical","item"
"350",NA,144,14,"0","buckets",FALSE,1,1275,"plural","nothing"
"351",NA,144,15,"0","rainboots",TRUE,1,2095,"plural","item"
"352",NA,144,16,"0","cookies",TRUE,1,3330,"lexical","nothing"
"353",NA,144,17,"0","shovels",FALSE,1,1681,"lexical","item"
"354",NA,144,18,"0","bows",TRUE,1,2538,"plural","item"
"355",NA,144,19,"0","carrots",TRUE,1,1915,"lexical","nothing"
"356",NA,144,20,"0","forks",TRUE,1,1219,"plural","item"
"357",NA,144,21,"0","mittens",TRUE,1,1566,"lexical","nothing"
"358",NA,144,22,"0","umbrellas",FALSE,1,1939,"plural","nothing"
"359",NA,144,23,"0","cakes",TRUE,1,1039,"plural","item"
"360",NA,144,24,"0","phones",TRUE,1,1149,"lexical","nothing"
"361",NA,144,25,"0","scissors",TRUE,1,1392,"plural","item"
"362",NA,144,26,"0","cats",FALSE,1,1383,"lexical","item"
"363",NA,144,27,"0","presents",TRUE,1,1396,"lexical","nothing"
"364",NA,144,28,"0","donuts",FALSE,1,1280,"lexical","item"
"365",NA,111,1,"1","donuts",TRUE,1,2773,"lexical","nothing"
"366",NA,111,2,"1","daisies",TRUE,1,1356,"lexical","nothing"
"367",NA,111,3,"1","fish",FALSE,0,1118,"plural","item"
"368",NA,111,4,"1","umbrellas",FALSE,1,1442,"lexical","item"
"369",NA,111,5,"1","pencils",FALSE,1,2040,"plural","nothing"
"370",NA,111,6,"1","apples",FALSE,1,1433,"plural","nothing"
"371",NA,111,7,"1","presents",FALSE,1,1545,"plural","nothing"
"372",NA,111,8,"1","cookies",TRUE,1,1532,"lexical","nothing"
"373",NA,111,9,"1","plants",FALSE,1,1346,"plural","nothing"
"374",NA,111,10,"1","purses",FALSE,1,1722,"lexical","item"
"375",NA,111,11,"1","bows",TRUE,1,2146,"lexical","nothing"
"376",NA,111,12,"1","cakes",TRUE,1,1971,"plural","item"
"377",NA,111,13,"1","buckets",TRUE,1,2111,"plural","item"
"378",NA,111,14,"1","carrots",TRUE,1,1817,"plural","item"
"379",NA,111,15,"1","kites",TRUE,1,1434,"lexical","nothing"
"380",NA,111,16,"1","balloons",TRUE,1,1363,"lexical","nothing"
"381",NA,111,17,"1","cars",TRUE,1,1424,"plural","item"
"382",NA,111,18,"1","shovels",TRUE,1,1519,"plural","item"
"383",NA,111,19,"1","rainboots",FALSE,1,1579,"plural","nothing"
"384",NA,111,20,"1","dogs",FALSE,0,2982,"lexical","nothing"
"385",NA,111,21,"1","phones",TRUE,1,1422,"plural","item"
"386",NA,111,22,"1","forks",FALSE,1,1432,"lexical","item"
"387",NA,111,23,"1","guitars",FALSE,1,1869,"plural","nothing"
"388",NA,111,24,"1","cats",FALSE,1,1527,"lexical","item"
"389",NA,111,25,"1","bananas",FALSE,1,1372,"lexical","item"
"390",NA,111,26,"1","flowers",FALSE,1,1715,"lexical","item"
"391",NA,111,27,"1","scissors",FALSE,1,1506,"plural","nothing"
"392",NA,111,28,"1","mittens",FALSE,1,1324,"lexical","item"
"393",NA,44,1,"3","shovels",TRUE,1,2280,"plural","item"
"394",NA,44,2,"3","forks",TRUE,1,2917,"lexical","nothing"
"395",NA,44,3,"3","bows",FALSE,1,5031,"plural","nothing"
"396",NA,44,4,"3","scissors",TRUE,1,2221,"plural","item"
"397",NA,44,5,"3","donuts",TRUE,1,2133,"lexical","nothing"
"398",NA,44,6,"3","fish",TRUE,1,1885,"plural","item"
"399",NA,44,7,"3","pencils",TRUE,1,1582,"plural","item"
"400",NA,44,8,"3","apples",FALSE,1,2493,"lexical","item"
"401",NA,44,9,"3","daisies",TRUE,1,1702,"plural","item"
"402",NA,44,10,"3","purses",FALSE,1,3652,"plural","nothing"
"403",NA,44,11,"3","dogs",TRUE,1,2557,"plural","item"
"404",NA,44,12,"3","cakes",FALSE,1,1709,"lexical","item"
"405",NA,44,13,"3","balloons",TRUE,1,2347,"lexical","nothing"
"406",NA,44,14,"3","phones",FALSE,1,1965,"lexical","item"
"407",NA,44,15,"3","presents",TRUE,1,2709,"lexical","nothing"
"408",NA,44,16,"3","kites",FALSE,1,2261,"plural","nothing"
"409",NA,44,17,"3","rainboots",TRUE,1,2780,"lexical","nothing"
"410",NA,44,18,"3","buckets",FALSE,1,1989,"plural","nothing"
"411",NA,44,19,"3","umbrellas",FALSE,1,2349,"lexical","item"
"412",NA,44,20,"3","cookies",FALSE,1,4100,"lexical","item"
"413",NA,44,21,"3","cats",FALSE,1,1838,"lexical","item"
"414",NA,44,22,"3","carrots",FALSE,1,2101,"plural","nothing"
"415",NA,44,23,"3","cars",FALSE,1,2136,"plural","nothing"
"416",NA,44,24,"3","flowers",TRUE,1,1781,"lexical","nothing"
"417",NA,44,25,"3","guitars",TRUE,1,2158,"plural","item"
"418",NA,44,26,"3","plants",FALSE,1,2124,"plural","nothing"
"419",NA,44,27,"3","bananas",TRUE,1,3220,"lexical","nothing"
"420",NA,44,28,"3","mittens",FALSE,1,2643,"lexical","item"
"421",NA,125,1,"0","flowers",FALSE,1,3340,"plural","nothing"
"422",NA,125,2,"0","forks",FALSE,1,3121,"lexical","item"
"423",NA,125,3,"0","fish",TRUE,1,2729,"plural","item"
"424",NA,125,4,"0","pencils",FALSE,1,2400,"lexical","item"
"425",NA,125,5,"0","presents",TRUE,1,2054,"plural","item"
"426",NA,125,6,"0","bananas",TRUE,1,2362,"lexical","nothing"
"427",NA,125,7,"0","balloons",TRUE,1,2211,"lexical","nothing"
"428",NA,125,8,"0","cats",FALSE,1,1783,"lexical","item"
"429",NA,125,9,"0","dogs",TRUE,1,3836,"lexical","nothing"
"430",NA,125,10,"0","donuts",TRUE,1,2287,"plural","item"
"431",NA,125,11,"0","umbrellas",FALSE,1,1523,"plural","nothing"
"432",NA,125,12,"0","cookies",FALSE,1,2814,"lexical","item"
"433",NA,125,13,"0","guitars",TRUE,1,1885,"lexical","nothing"
"434",NA,125,14,"0","cars",FALSE,1,2382,"lexical","item"
"435",NA,125,15,"0","daisies",FALSE,1,2348,"lexical","item"
"436",NA,125,16,"0","buckets",TRUE,0,2449,"plural","nothing"
"437",NA,125,17,"0","carrots",FALSE,1,2654,"plural","nothing"
"438",NA,125,18,"0","purses",TRUE,1,2219,"lexical","nothing"
"439",NA,125,19,"0","plants",TRUE,1,2085,"plural","item"
"440",NA,125,20,"0","phones",TRUE,1,2456,"lexical","nothing"
"441",NA,125,21,"0","rainboots",TRUE,1,3121,"plural","item"
"442",NA,125,22,"0","scissors",TRUE,1,1883,"lexical","nothing"
"443",NA,125,23,"0","cakes",TRUE,1,1716,"plural","item"
"444",NA,125,24,"0","kites",FALSE,1,2056,"plural","nothing"
"445",NA,125,25,"0","mittens",FALSE,1,2021,"plural","nothing"
"446",NA,125,26,"0","shovels",FALSE,1,2069,"plural","nothing"
"447",NA,125,27,"0","bows",FALSE,1,1980,"lexical","item"
"448",NA,125,28,"0","apples",TRUE,1,2199,"plural","item"
"449",NA,178,1,"3","cookies",FALSE,1,1927,"plural","nothing"
"450",NA,178,2,"3","phones",TRUE,1,1365,"lexical","nothing"
"451",NA,178,3,"3","cats",FALSE,1,1941,"plural","nothing"
"452",NA,178,4,"3","cakes",TRUE,1,1089,"plural","item"
"453",NA,178,5,"3","purses",FALSE,1,868,"plural","nothing"
"454",NA,178,6,"3","cars",TRUE,1,1511,"lexical","nothing"
"455",NA,178,7,"3","guitars",FALSE,1,1002,"plural","nothing"
"456",NA,178,8,"3","dogs",FALSE,1,4114,"lexical","item"
"457",NA,178,9,"3","buckets",TRUE,1,1240,"lexical","nothing"
"458",NA,178,10,"3","pencils",FALSE,1,1056,"plural","nothing"
"459",NA,178,11,"3","donuts",TRUE,1,1076,"plural","item"
"460",NA,178,12,"3","shovels",TRUE,1,1501,"lexical","nothing"
"461",NA,178,13,"3","carrots",FALSE,1,1377,"lexical","item"
"462",NA,178,14,"3","presents",FALSE,1,1825,"plural","nothing"
"463",NA,178,15,"3","apples",FALSE,1,1481,"lexical","item"
"464",NA,178,16,"3","bananas",FALSE,1,1504,"lexical","item"
"465",NA,178,17,"3","daisies",FALSE,1,1058,"plural","nothing"
"466",NA,178,18,"3","umbrellas",TRUE,1,1186,"lexical","nothing"
"467",NA,178,19,"3","balloons",TRUE,1,1267,"lexical","nothing"
"468",NA,178,20,"3","mittens",FALSE,1,1063,"lexical","item"
"469",NA,178,21,"3","fish",TRUE,1,757,"plural","item"
"470",NA,178,22,"3","kites",TRUE,1,1151,"plural","item"
"471",NA,178,23,"3","forks",TRUE,1,1169,"lexical","nothing"
"472",NA,178,24,"3","flowers",TRUE,1,791,"plural","item"
"473",NA,178,25,"3","bows",TRUE,1,889,"plural","item"
"474",NA,178,26,"3","plants",FALSE,1,1899,"lexical","item"
"475",NA,178,27,"3","rainboots",FALSE,1,1461,"lexical","item"
"476",NA,178,28,"3","scissors",TRUE,1,808,"plural","item"
"477",NA,16,1,"0","flowers",FALSE,1,894,"plural","nothing"
"478",NA,16,2,"0","rainboots",FALSE,1,1004,"plural","nothing"
"479",NA,16,3,"0","scissors",FALSE,0,1063,"lexical","nothing"
"480",NA,16,4,"0","dogs",FALSE,1,1135,"plural","nothing"
"481",NA,16,5,"0","pencils",FALSE,1,1161,"lexical","item"
"482",NA,16,6,"0","presents",FALSE,1,1593,"lexical","item"
"483",NA,16,7,"0","cars",TRUE,1,962,"lexical","nothing"
"484",NA,16,8,"0","guitars",TRUE,1,844,"lexical","nothing"
"485",NA,16,9,"0","forks",TRUE,1,1189,"plural","item"
"486",NA,16,10,"0","fish",FALSE,1,1203,"plural","nothing"
"487",NA,16,11,"0","cats",FALSE,1,837,"lexical","item"
"488",NA,16,12,"0","kites",TRUE,1,869,"plural","item"
"489",NA,16,13,"0","phones",TRUE,1,1442,"lexical","nothing"
"490",NA,16,14,"0","bows",TRUE,1,1218,"plural","item"
"491",NA,16,15,"0","donuts",FALSE,1,910,"plural","nothing"
"492",NA,16,16,"0","daisies",FALSE,1,1003,"lexical","item"
"493",NA,16,17,"0","balloons",TRUE,1,831,"lexical","nothing"
"494",NA,16,18,"0","umbrellas",TRUE,1,812,"plural","item"
"495",NA,16,19,"0","cakes",FALSE,1,747,"lexical","item"
"496",NA,16,20,"0","bananas",TRUE,1,723,"plural","item"
"497",NA,16,21,"0","apples",FALSE,1,774,"lexical","item"
"498",NA,16,22,"0","carrots",FALSE,1,886,"plural","nothing"
"499",NA,16,23,"0","plants",TRUE,1,677,"plural","item"
"500",NA,16,24,"0","shovels",FALSE,0,850,"lexical","nothing"
"501",NA,16,25,"0","mittens",FALSE,1,1117,"plural","nothing"
"502",NA,16,26,"0","buckets",TRUE,1,797,"lexical","nothing"
"503",NA,16,27,"0","purses",FALSE,1,1003,"lexical","item"
"504",NA,16,28,"0","cookies",TRUE,1,856,"plural","item"
"505",NA,171,1,"1","cookies",TRUE,1,3810,"plural","item"
"506",NA,171,2,"1","fish",FALSE,1,2658,"plural","nothing"
"507",NA,171,3,"1","daisies",TRUE,1,2393,"plural","item"
"508",NA,171,4,"1","cars",FALSE,1,2817,"lexical","item"
"509",NA,171,5,"1","pencils",TRUE,1,2958,"lexical","nothing"
"510",NA,171,6,"1","umbrellas",FALSE,1,3293,"plural","nothing"
"511",NA,171,7,"1","scissors",TRUE,1,2856,"lexical","nothing"
"512",NA,171,8,"1","guitars",FALSE,1,3720,"plural","nothing"
"513",NA,171,9,"1","kites",FALSE,1,2319,"lexical","item"
"514",NA,171,10,"1","flowers",FALSE,0,4101,"plural","item"
"515",NA,171,11,"1","rainboots",TRUE,1,3701,"plural","item"
"516",NA,171,12,"1","apples",FALSE,1,3990,"lexical","item"
"517",NA,171,13,"1","carrots",TRUE,0,3754,"plural","nothing"
"518",NA,171,14,"1","phones",TRUE,1,3223,"lexical","nothing"
"519",NA,171,15,"1","presents",FALSE,1,2760,"lexical","item"
"520",NA,171,16,"1","balloons",TRUE,1,2931,"lexical","nothing"
"521",NA,171,17,"1","shovels",TRUE,1,3829,"lexical","nothing"
"522",NA,171,18,"1","donuts",FALSE,1,2607,"plural","nothing"
"523",NA,171,19,"1","cats",TRUE,1,3504,"plural","item"
"524",NA,171,20,"1","bananas",FALSE,1,4093,"lexical","item"
"525",NA,171,21,"1","purses",TRUE,1,5513,"plural","item"
"526",NA,171,22,"1","mittens",FALSE,1,2644,"plural","nothing"
"527",NA,171,23,"1","bows",TRUE,1,4666,"plural","item"
"528",NA,171,24,"1","cakes",FALSE,1,2405,"lexical","item"
"529",NA,171,25,"1","dogs",TRUE,1,2579,"lexical","nothing"
"530",NA,171,26,"1","buckets",TRUE,1,3564,"lexical","nothing"
"531",NA,171,27,"1","plants",TRUE,0,4538,"plural","nothing"
"532",NA,171,28,"1","forks",FALSE,1,2647,"lexical","item"
"533",NA,94,1,"2","cakes",FALSE,1,1891,"plural","nothing"
"534",NA,94,2,"2","bananas",TRUE,1,1491,"plural","item"
"535",NA,94,3,"2","daisies",FALSE,1,1480,"lexical","item"
"536",NA,94,4,"2","cats",FALSE,1,1178,"lexical","item"
"537",NA,94,5,"2","kites",TRUE,1,1550,"lexical","nothing"
"538",NA,94,6,"2","pencils",FALSE,1,1621,"plural","nothing"
"539",NA,94,7,"2","bows",FALSE,1,1720,"plural","nothing"
"540",NA,94,8,"2","presents",FALSE,1,1140,"lexical","item"
"541",NA,94,9,"2","balloons",FALSE,1,980,"lexical","item"
"542",NA,94,10,"2","plants",TRUE,1,910,"plural","item"
"543",NA,94,11,"2","donuts",FALSE,1,1710,"plural","nothing"
"544",NA,94,12,"2","buckets",FALSE,1,1090,"lexical","item"
"545",NA,94,13,"2","rainboots",TRUE,1,840,"plural","item"
"546",NA,94,14,"2","shovels",TRUE,1,1210,"plural","item"
"547",NA,94,15,"2","fish",FALSE,1,890,"lexical","item"
"548",NA,94,16,"2","dogs",TRUE,1,1100,"plural","item"
"549",NA,94,17,"2","guitars",TRUE,1,1200,"lexical","nothing"
"550",NA,94,18,"2","forks",TRUE,1,1260,"lexical","nothing"
"551",NA,94,19,"2","flowers",FALSE,1,1241,"plural","nothing"
"552",NA,94,20,"2","purses",FALSE,1,1280,"lexical","item"
"553",NA,94,21,"2","carrots",TRUE,1,870,"plural","item"
"554",NA,94,22,"2","scissors",TRUE,1,1220,"plural","item"
"555",NA,94,23,"2","cookies",TRUE,1,1170,"lexical","nothing"
"556",NA,94,24,"2","apples",TRUE,1,1290,"lexical","nothing"
"557",NA,94,25,"2","mittens",TRUE,1,1174,"lexical","nothing"
"558",NA,94,26,"2","umbrellas",FALSE,1,1110,"plural","nothing"
"559",NA,94,27,"2","phones",FALSE,1,1110,"plural","nothing"
"560",NA,94,28,"2","cars",TRUE,1,1410,"lexical","nothing"
"561",NA,68,1,"3","forks",FALSE,0,4132,"lexical","nothing"
"562",NA,68,2,"3","phones",TRUE,1,6514,"lexical","nothing"
"563",NA,68,3,"3","bows",FALSE,0,4796,"plural","item"
"564",NA,68,4,"3","balloons",FALSE,1,3125,"lexical","item"
"565",NA,68,5,"3","umbrellas",TRUE,1,4612,"lexical","nothing"
"566",NA,68,6,"3","apples",TRUE,1,4343,"lexical","nothing"
"567",NA,68,7,"3","flowers",FALSE,1,4690,"plural","nothing"
"568",NA,68,8,"3","cookies",FALSE,1,4004,"plural","nothing"
"569",NA,68,9,"3","cars",FALSE,1,2584,"plural","nothing"
"570",NA,68,10,"3","dogs",FALSE,1,3464,"lexical","item"
"571",NA,68,11,"3","cats",FALSE,1,2424,"lexical","item"
"572",NA,68,12,"3","fish",TRUE,1,2293,"plural","item"
"573",NA,68,13,"3","guitars",TRUE,1,2088,"lexical","nothing"
"574",NA,68,14,"3","pencils",FALSE,1,1842,"lexical","item"
"575",NA,68,15,"3","daisies",FALSE,1,1708,"lexical","item"
"576",NA,68,16,"3","buckets",TRUE,1,2364,"plural","item"
"577",NA,68,17,"3","mittens",FALSE,1,1759,"lexical","item"
"578",NA,68,18,"3","rainboots",FALSE,1,2614,"plural","nothing"
"579",NA,68,19,"3","carrots",TRUE,1,2028,"lexical","nothing"
"580",NA,68,20,"3","scissors",FALSE,1,2112,"plural","nothing"
"581",NA,68,21,"3","presents",FALSE,1,1943,"plural","nothing"
"582",NA,68,22,"3","purses",TRUE,1,2066,"plural","item"
"583",NA,68,23,"3","bananas",TRUE,1,1850,"plural","item"
"584",NA,68,24,"3","kites",TRUE,1,2038,"plural","item"
"585",NA,68,25,"3","plants",FALSE,1,1856,"plural","nothing"
"586",NA,68,26,"3","shovels",TRUE,1,1731,"plural","item"
"587",NA,68,27,"3","donuts",FALSE,1,1927,"lexical","item"
"588",NA,68,28,"3","cakes",TRUE,1,2453,"lexical","nothing"
"589",NA,140,1,"3","daisies",TRUE,1,2155,"lexical","nothing"
"590",NA,140,2,"3","rainboots",TRUE,1,2078,"plural","item"
"591",NA,140,3,"3","scissors",TRUE,1,1653,"plural","item"
"592",NA,140,4,"3","guitars",TRUE,1,1517,"plural","item"
"593",NA,140,5,"3","buckets",FALSE,1,2250,"lexical","item"
"594",NA,140,6,"3","forks",TRUE,1,1629,"lexical","nothing"
"595",NA,140,7,"3","cars",FALSE,1,2052,"plural","nothing"
"596",NA,140,8,"3","shovels",FALSE,1,1900,"plural","nothing"
"597",NA,140,9,"3","mittens",TRUE,1,1721,"lexical","nothing"
"598",NA,140,10,"3","cats",FALSE,1,1919,"lexical","item"
"599",NA,140,11,"3","apples",TRUE,1,1855,"lexical","nothing"
"600",NA,140,12,"3","umbrellas",FALSE,1,1704,"lexical","item"
"601",NA,140,13,"3","presents",TRUE,1,1465,"lexical","nothing"
"602",NA,140,14,"3","bows",FALSE,1,1998,"lexical","item"
"603",NA,140,15,"3","phones",TRUE,1,2061,"lexical","nothing"
"604",NA,140,16,"3","cakes",FALSE,1,2061,"lexical","item"
"605",NA,140,17,"3","balloons",TRUE,1,1681,"plural","item"
"606",NA,140,18,"3","kites",TRUE,1,1610,"plural","item"
"607",NA,140,19,"3","flowers",TRUE,1,2843,"lexical","nothing"
"608",NA,140,20,"3","cookies",FALSE,1,1508,"plural","nothing"
"609",NA,140,21,"3","plants",FALSE,1,1375,"plural","nothing"
"610",NA,140,22,"3","fish",FALSE,1,1859,"plural","nothing"
"611",NA,140,23,"3","carrots",FALSE,1,2295,"lexical","item"
"612",NA,140,24,"3","dogs",TRUE,1,2675,"plural","item"
"613",NA,140,25,"3","donuts",FALSE,0,1638,"plural","item"
"614",NA,140,26,"3","bananas",FALSE,1,1517,"plural","nothing"
"615",NA,140,27,"3","purses",FALSE,1,1977,"plural","nothing"
"616",NA,140,28,"3","pencils",FALSE,1,2043,"lexical","item"
"617",NA,182,1,"1","cakes",FALSE,1,1523,"lexical","item"
"618",NA,182,2,"1","balloons",TRUE,1,1341,"plural","item"
"619",NA,182,3,"1","shovels",FALSE,1,1607,"plural","nothing"
"620",NA,182,4,"1","bows",TRUE,1,2106,"lexical","nothing"
"621",NA,182,5,"1","scissors",TRUE,1,1295,"plural","item"
"622",NA,182,6,"1","presents",FALSE,1,1514,"plural","nothing"
"623",NA,182,7,"1","mittens",FALSE,1,2044,"lexical","item"
"624",NA,182,8,"1","plants",TRUE,1,1701,"lexical","nothing"
"625",NA,182,9,"1","apples",TRUE,1,2871,"lexical","nothing"
"626",NA,182,10,"1","fish",FALSE,1,1563,"plural","nothing"
"627",NA,182,11,"1","umbrellas",FALSE,1,1263,"plural","nothing"
"628",NA,182,12,"1","rainboots",TRUE,1,3073,"lexical","nothing"
"629",NA,182,13,"1","phones",TRUE,1,2293,"plural","item"
"630",NA,182,14,"1","dogs",TRUE,1,2153,"lexical","nothing"
"631",NA,182,15,"1","forks",FALSE,1,1139,"lexical","item"
"632",NA,182,16,"1","pencils",TRUE,1,1904,"lexical","nothing"
"633",NA,182,17,"1","purses",TRUE,1,2231,"plural","item"
"634",NA,182,18,"1","carrots",TRUE,0,1450,"plural","nothing"
"635",NA,182,19,"1","cats",TRUE,1,1217,"plural","item"
"636",NA,182,20,"1","daisies",FALSE,0,2122,"lexical","nothing"
"637",NA,182,21,"1","buckets",FALSE,1,2012,"lexical","item"
"638",NA,182,22,"1","cars",TRUE,1,1029,"plural","item"
"639",NA,182,23,"1","bananas",FALSE,1,1124,"lexical","item"
"640",NA,182,24,"1","donuts",FALSE,1,1763,"plural","nothing"
"641",NA,182,25,"1","guitars",TRUE,1,2793,"plural","item"
"642",NA,182,26,"1","kites",FALSE,1,7414,"plural","nothing"
"643",NA,182,27,"1","flowers",FALSE,1,1794,"lexical","item"
"644",NA,182,28,"1","cookies",FALSE,1,1498,"lexical","item"
"645",NA,158,1,"2","cars",TRUE,1,2837,"plural","item"
"646",NA,158,2,"2","pencils",TRUE,1,1508,"plural","item"
"647",NA,158,3,"2","cakes",FALSE,1,1396,"plural","nothing"
"648",NA,158,4,"2","cats",TRUE,1,1512,"lexical","nothing"
"649",NA,158,5,"2","donuts",FALSE,1,2557,"lexical","item"
"650",NA,158,6,"2","kites",FALSE,0,1941,"lexical","nothing"
"651",NA,158,7,"2","presents",TRUE,1,2139,"lexical","nothing"
"652",NA,158,8,"2","bows",FALSE,1,2263,"lexical","item"
"653",NA,158,9,"2","fish",TRUE,1,1404,"lexical","nothing"
"654",NA,158,10,"2","mittens",FALSE,0,1449,"plural","item"
"655",NA,158,11,"2","guitars",FALSE,1,3043,"plural","nothing"
"656",NA,158,12,"2","forks",TRUE,1,1210,"plural","item"
"657",NA,158,13,"2","balloons",FALSE,1,1230,"lexical","item"
"658",NA,158,14,"2","scissors",TRUE,1,1163,"plural","item"
"659",NA,158,15,"2","phones",FALSE,1,1319,"plural","nothing"
"660",NA,158,16,"2","daisies",TRUE,1,1735,"lexical","nothing"
"661",NA,158,17,"2","umbrellas",TRUE,0,1644,"plural","nothing"
"662",NA,158,18,"2","shovels",TRUE,1,1337,"plural","item"
"663",NA,158,19,"2","plants",TRUE,1,1994,"lexical","nothing"
"664",NA,158,20,"2","purses",FALSE,1,2204,"plural","nothing"
"665",NA,158,21,"2","buckets",FALSE,1,1539,"lexical","item"
"666",NA,158,22,"2","carrots",FALSE,1,1462,"lexical","item"
"667",NA,158,23,"2","dogs",TRUE,0,1188,"plural","nothing"
"668",NA,158,24,"2","bananas",FALSE,1,1730,"lexical","item"
"669",NA,158,25,"2","apples",FALSE,1,1756,"plural","nothing"
"670",NA,158,26,"2","flowers",FALSE,1,1504,"lexical","item"
"671",NA,158,27,"2","rainboots",TRUE,1,1234,"plural","item"
"672",NA,158,28,"2","cookies",TRUE,1,1316,"lexical","nothing"
"673",NA,18,1,"0","cats",TRUE,1,2833,"lexical","nothing"
"674",NA,18,2,"0","balloons",TRUE,1,1481,"lexical","nothing"
"675",NA,18,3,"0","forks",TRUE,0,2812,"lexical","item"
"676",NA,18,4,"0","flowers",FALSE,1,2074,"lexical","item"
"677",NA,18,5,"0","plants",FALSE,1,2227,"plural","nothing"
"678",NA,18,6,"0","fish",FALSE,1,2273,"plural","nothing"
"679",NA,18,7,"0","donuts",FALSE,1,1436,"plural","nothing"
"680",NA,18,8,"0","bananas",FALSE,1,1474,"lexical","item"
"681",NA,18,9,"0","cars",TRUE,0,1825,"lexical","item"
"682",NA,18,10,"0","rainboots",FALSE,1,2540,"lexical","item"
"683",NA,18,11,"0","daisies",TRUE,1,2059,"lexical","nothing"
"684",NA,18,12,"0","purses",FALSE,1,1731,"lexical","item"
"685",NA,18,13,"0","carrots",TRUE,1,1922,"plural","item"
"686",NA,18,14,"0","kites",TRUE,1,1590,"plural","item"
"687",NA,18,15,"0","mittens",FALSE,1,1803,"lexical","item"
"688",NA,18,16,"0","bows",TRUE,1,1915,"plural","item"
"689",NA,18,17,"0","umbrellas",FALSE,1,1404,"plural","nothing"
"690",NA,18,18,"0","phones",TRUE,1,1330,"plural","item"
"691",NA,18,19,"0","cakes",TRUE,1,1371,"plural","item"
"692",NA,18,20,"0","buckets",FALSE,1,1691,"plural","nothing"
"693",NA,18,21,"0","cookies",FALSE,1,1723,"plural","nothing"
"694",NA,18,22,"0","apples",TRUE,1,1364,"plural","item"
"695",NA,18,23,"0","guitars",TRUE,1,1428,"plural","item"
"696",NA,18,24,"0","scissors",TRUE,1,1786,"lexical","nothing"
"697",NA,18,25,"0","dogs",TRUE,1,1317,"lexical","nothing"
"698",NA,18,26,"0","presents",TRUE,1,1682,"lexical","nothing"
"699",NA,18,27,"0","shovels",FALSE,1,1597,"plural","nothing"
"700",NA,18,28,"0","pencils",TRUE,1,1516,"lexical","nothing"
"701",NA,78,1,"0","kites",TRUE,1,4387,"lexical","nothing"
"702",NA,78,2,"0","carrots",FALSE,1,2516,"plural","nothing"
"703",NA,78,3,"0","buckets",FALSE,1,3125,"lexical","item"
"704",NA,78,4,"0","cars",TRUE,1,1566,"plural","item"
"705",NA,78,5,"0","cats",TRUE,1,1536,"lexical","nothing"
"706",NA,78,6,"0","plants",FALSE,1,2383,"plural","nothing"
"707",NA,78,7,"0","daisies",FALSE,1,3329,"lexical","item"
"708",NA,78,8,"0","phones",TRUE,1,1711,"lexical","nothing"
"709",NA,78,9,"0","cakes",TRUE,1,2322,"lexical","nothing"
"710",NA,78,10,"0","bananas",TRUE,0,1191,"plural","nothing"
"711",NA,78,11,"0","presents",TRUE,1,1366,"lexical","nothing"
"712",NA,78,12,"0","donuts",TRUE,1,1382,"plural","item"
"713",NA,78,13,"0","balloons",FALSE,1,1796,"plural","nothing"
"714",NA,78,14,"0","apples",FALSE,1,1371,"lexical","item"
"715",NA,78,15,"0","scissors",TRUE,1,1104,"plural","item"
"716",NA,78,16,"0","shovels",FALSE,1,2228,"lexical","item"
"717",NA,78,17,"0","pencils",FALSE,0,1161,"lexical","nothing"
"718",NA,78,18,"0","umbrellas",TRUE,1,1145,"plural","item"
"719",NA,78,19,"0","rainboots",FALSE,1,1227,"plural","nothing"
"720",NA,78,20,"0","fish",TRUE,1,1188,"plural","item"
"721",NA,78,21,"0","guitars",TRUE,1,870,"plural","item"
"722",NA,78,22,"0","forks",FALSE,1,1110,"plural","nothing"
"723",NA,78,23,"0","flowers",TRUE,1,1349,"plural","item"
"724",NA,78,24,"0","purses",TRUE,1,1737,"lexical","nothing"
"725",NA,78,25,"0","dogs",TRUE,0,1088,"lexical","item"
"726",NA,78,26,"0","cookies",FALSE,1,1578,"lexical","item"
"727",NA,78,27,"0","bows",FALSE,1,3259,"plural","nothing"
"728",NA,78,28,"0","mittens",FALSE,1,1549,"lexical","item"
"729",NA,6,1,"1","fish",FALSE,1,1228,"lexical","item"
"730",NA,6,2,"1","plants",TRUE,1,1515,"plural","item"
"731",NA,6,3,"1","balloons",TRUE,1,1577,"plural","item"
"732",NA,6,4,"1","presents",FALSE,1,935,"plural","nothing"
"733",NA,6,5,"1","daisies",TRUE,0,1083,"lexical","item"
"734",NA,6,6,"1","donuts",FALSE,1,1277,"plural","nothing"
"735",NA,6,7,"1","forks",FALSE,1,1134,"plural","nothing"
"736",NA,6,8,"1","cats",TRUE,1,1285,"lexical","nothing"
"737",NA,6,9,"1","carrots",FALSE,1,1475,"lexical","item"
"738",NA,6,10,"1","umbrellas",FALSE,1,1463,"lexical","item"
"739",NA,6,11,"1","mittens",FALSE,1,1104,"lexical","item"
"740",NA,6,12,"1","kites",FALSE,1,1227,"plural","nothing"
"741",NA,6,13,"1","scissors",TRUE,1,1249,"lexical","nothing"
"742",NA,6,14,"1","guitars",FALSE,1,1147,"plural","nothing"
"743",NA,6,15,"1","buckets",TRUE,1,1008,"plural","item"
"744",NA,6,16,"1","cookies",FALSE,1,1293,"lexical","item"
"745",NA,6,17,"1","bananas",TRUE,1,1028,"plural","item"
"746",NA,6,18,"1","flowers",TRUE,1,999,"lexical","nothing"
"747",NA,6,19,"1","purses",TRUE,1,1267,"plural","item"
"748",NA,6,20,"1","apples",TRUE,1,884,"plural","item"
"749",NA,6,21,"1","pencils",TRUE,1,850,"plural","item"
"750",NA,6,22,"1","phones",FALSE,1,932,"plural","nothing"
"751",NA,6,23,"1","shovels",TRUE,1,1072,"lexical","nothing"
"752",NA,6,24,"1","dogs",TRUE,1,898,"lexical","nothing"
"753",NA,6,25,"1","rainboots",TRUE,1,856,"lexical","nothing"
"754",NA,6,26,"1","bows",TRUE,1,1005,"lexical","nothing"
"755",NA,6,27,"1","cakes",FALSE,1,808,"lexical","item"
"756",NA,6,28,"1","cars",FALSE,1,1073,"plural","nothing"
"757",NA,159,1,"2","shovels",FALSE,1,1141,"lexical","item"
"758",NA,159,2,"2","carrots",FALSE,1,1649,"plural","nothing"
"759",NA,159,3,"2","forks",TRUE,1,1215,"lexical","nothing"
"760",NA,159,4,"2","presents",TRUE,1,2256,"plural","item"
"761",NA,159,5,"2","dogs",FALSE,1,1520,"plural","nothing"
"762",NA,159,6,"2","daisies",TRUE,1,1344,"plural","item"
"763",NA,159,7,"2","fish",TRUE,1,1376,"plural","item"
"764",NA,159,8,"2","cats",TRUE,1,1855,"lexical","nothing"
"765",NA,159,9,"2","guitars",TRUE,1,2176,"plural","item"
"766",NA,159,10,"2","umbrellas",FALSE,1,1472,"plural","nothing"
"767",NA,159,11,"2","bows",TRUE,1,1186,"plural","item"
"768",NA,159,12,"2","buckets",FALSE,1,1167,"plural","nothing"
"769",NA,159,13,"2","cars",TRUE,1,2288,"lexical","nothing"
"770",NA,159,14,"2","bananas",FALSE,1,2640,"lexical","item"
"771",NA,159,15,"2","donuts",FALSE,1,2768,"lexical","item"
"772",NA,159,16,"2","kites",TRUE,1,1040,"lexical","nothing"
"773",NA,159,17,"2","scissors",TRUE,1,1488,"plural","item"
"774",NA,159,18,"2","plants",TRUE,0,3568,"lexical","item"
"775",NA,159,19,"2","balloons",FALSE,1,1053,"lexical","item"
"776",NA,159,20,"2","apples",FALSE,1,2142,"plural","nothing"
"777",NA,159,21,"2","pencils",FALSE,1,1789,"plural","nothing"
"778",NA,159,22,"2","mittens",TRUE,1,1375,"lexical","nothing"
"779",NA,159,23,"2","phones",TRUE,1,1593,"lexical","nothing"
"780",NA,159,24,"2","purses",TRUE,1,2271,"plural","item"
"781",NA,159,25,"2","cakes",FALSE,1,2097,"plural","nothing"
"782",NA,159,26,"2","cookies",TRUE,1,1535,"lexical","nothing"
"783",NA,159,27,"2","rainboots",FALSE,1,1632,"lexical","item"
"784",NA,159,28,"2","flowers",FALSE,1,1537,"lexical","item"
"785",NA,194,1,"3","carrots",FALSE,1,2094,"lexical","item"
"786",NA,194,2,"3","fish",FALSE,1,1469,"lexical","item"
"787",NA,194,3,"3","mittens",FALSE,1,1686,"lexical","item"
"788",NA,194,4,"3","pencils",TRUE,1,2106,"plural","item"
"789",NA,194,5,"3","bows",FALSE,1,2808,"plural","nothing"
"790",NA,194,6,"3","kites",FALSE,1,1598,"plural","nothing"
"791",NA,194,7,"3","plants",TRUE,1,1607,"lexical","nothing"
"792",NA,194,8,"3","buckets",TRUE,1,1684,"lexical","nothing"
"793",NA,194,9,"3","cats",FALSE,1,1544,"lexical","item"
"794",NA,194,10,"3","guitars",TRUE,0,1529,"plural","nothing"
"795",NA,194,11,"3","dogs",TRUE,1,1982,"plural","item"
"796",NA,194,12,"3","apples",TRUE,1,1373,"lexical","nothing"
"797",NA,194,13,"3","flowers",TRUE,1,1762,"lexical","nothing"
"798",NA,194,14,"3","cookies",FALSE,1,2090,"plural","nothing"
"799",NA,194,15,"3","purses",TRUE,1,1825,"plural","item"
"800",NA,194,16,"3","presents",FALSE,1,1564,"plural","nothing"
"801",NA,194,17,"3","donuts",TRUE,1,1638,"plural","item"
"802",NA,194,18,"3","umbrellas",TRUE,1,1513,"lexical","nothing"
"803",NA,194,19,"3","forks",TRUE,1,1279,"lexical","nothing"
"804",NA,194,20,"3","rainboots",TRUE,1,3042,"plural","item"
"805",NA,194,21,"3","cars",TRUE,1,1139,"plural","item"
"806",NA,194,22,"3","bananas",FALSE,1,1367,"plural","nothing"
"807",NA,194,23,"3","balloons",FALSE,1,1810,"lexical","item"
"808",NA,194,24,"3","cakes",TRUE,1,1279,"lexical","nothing"
"809",NA,194,25,"3","daisies",TRUE,1,1295,"plural","item"
"810",NA,194,26,"3","phones",FALSE,1,1201,"lexical","item"
"811",NA,194,27,"3","shovels",FALSE,1,2262,"lexical","item"
"812",NA,194,28,"3","scissors",TRUE,0,1294,"plural","nothing"
"813",NA,200,1,"2","shovels",FALSE,1,2125,"lexical","item"
"814",NA,200,2,"2","phones",FALSE,1,1560,"lexical","item"
"815",NA,200,3,"2","plants",FALSE,1,2095,"plural","nothing"
"816",NA,200,4,"2","guitars",TRUE,1,2033,"lexical","nothing"
"817",NA,200,5,"2","daisies",TRUE,1,2229,"lexical","nothing"
"818",NA,200,6,"2","presents",TRUE,1,1427,"lexical","nothing"
"819",NA,200,7,"2","umbrellas",TRUE,1,1151,"plural","item"
"820",NA,200,8,"2","balloons",TRUE,1,1362,"lexical","nothing"
"821",NA,200,9,"2","buckets",FALSE,1,1688,"lexical","item"
"822",NA,200,10,"2","donuts",TRUE,1,1360,"lexical","nothing"
"823",NA,200,11,"2","dogs",TRUE,1,1426,"plural","item"
"824",NA,200,12,"2","pencils",TRUE,1,1152,"plural","item"
"825",NA,200,13,"2","scissors",FALSE,1,1087,"plural","nothing"
"826",NA,200,14,"2","purses",FALSE,1,1562,"lexical","item"
"827",NA,200,15,"2","cars",TRUE,1,1216,"plural","item"
"828",NA,200,16,"2","cats",TRUE,1,1018,"plural","item"
"829",NA,200,17,"2","cookies",FALSE,1,1223,"plural","nothing"
"830",NA,200,18,"2","mittens",FALSE,1,1363,"plural","nothing"
"831",NA,200,19,"2","carrots",FALSE,1,1759,"lexical","item"
"832",NA,200,20,"2","apples",TRUE,1,2162,"lexical","nothing"
"833",NA,200,21,"2","bows",FALSE,1,2107,"plural","nothing"
"834",NA,200,22,"2","forks",TRUE,1,1288,"lexical","nothing"
"835",NA,200,23,"2","bananas",FALSE,1,1423,"lexical","item"
"836",NA,200,24,"2","flowers",TRUE,1,1090,"plural","item"
"837",NA,200,25,"2","kites",FALSE,1,1353,"plural","nothing"
"838",NA,200,26,"2","fish",FALSE,1,1151,"plural","nothing"
"839",NA,200,27,"2","rainboots",FALSE,1,3247,"lexical","item"
"840",NA,200,28,"2","cakes",TRUE,1,1761,"plural","item"
"841",NA,109,1,"3","cakes",TRUE,1,1083,"lexical","nothing"
"842",NA,109,2,"3","rainboots",TRUE,0,1339,"plural","nothing"
"843",NA,109,3,"3","dogs",FALSE,1,1142,"plural","nothing"
"844",NA,109,4,"3","plants",TRUE,1,1428,"plural","item"
"845",NA,109,5,"3","donuts",FALSE,1,2807,"lexical","item"
"846",NA,109,6,"3","buckets",TRUE,1,1376,"plural","item"
"847",NA,109,7,"3","cookies",TRUE,1,1207,"plural","item"
"848",NA,109,8,"3","apples",TRUE,0,2531,"lexical","item"
"849",NA,109,9,"3","mittens",TRUE,1,1229,"plural","item"
"850",NA,109,10,"3","umbrellas",FALSE,1,2096,"plural","nothing"
"851",NA,109,11,"3","purses",TRUE,0,2592,"lexical","item"
"852",NA,109,12,"3","presents",FALSE,1,1315,"plural","nothing"
"853",NA,109,13,"3","scissors",FALSE,1,4098,"lexical","item"
"854",NA,109,14,"3","phones",FALSE,1,1731,"plural","nothing"
"855",NA,109,15,"3","fish",FALSE,1,2194,"plural","nothing"
"856",NA,109,16,"3","cats",FALSE,1,2872,"lexical","item"
"857",NA,109,17,"3","forks",TRUE,1,1963,"lexical","nothing"
"858",NA,109,18,"3","daisies",TRUE,1,1350,"plural","item"
"859",NA,109,19,"3","kites",TRUE,1,1803,"lexical","nothing"
"860",NA,109,20,"3","carrots",FALSE,1,1534,"plural","nothing"
"861",NA,109,21,"3","flowers",TRUE,1,1509,"lexical","nothing"
"862",NA,109,22,"3","pencils",TRUE,1,1391,"lexical","nothing"
"863",NA,109,23,"3","cars",TRUE,1,1235,"lexical","nothing"
"864",NA,109,24,"3","shovels",FALSE,1,1870,"lexical","item"
"865",NA,109,25,"3","balloons",TRUE,1,1397,"plural","item"
"866",NA,109,26,"3","bows",TRUE,1,1843,"lexical","nothing"
"867",NA,109,27,"3","bananas",TRUE,1,945,"plural","item"
"868",NA,109,28,"3","guitars",FALSE,1,2099,"lexical","item"
"869",NA,35,1,"3","dogs",TRUE,1,1418,"plural","item"
"870",NA,35,2,"3","daisies",FALSE,1,2674,"plural","nothing"
"871",NA,35,3,"3","purses",TRUE,1,2844,"lexical","nothing"
"872",NA,35,4,"3","presents",TRUE,1,1447,"lexical","nothing"
"873",NA,35,5,"3","buckets",TRUE,1,1821,"plural","item"
"874",NA,35,6,"3","rainboots",TRUE,1,2904,"plural","item"
"875",NA,35,7,"3","umbrellas",TRUE,1,1187,"lexical","nothing"
"876",NA,35,8,"3","cookies",TRUE,1,1093,"plural","item"
"877",NA,35,9,"3","fish",FALSE,1,2173,"lexical","item"
"878",NA,35,10,"3","pencils",FALSE,1,1741,"plural","nothing"
"879",NA,35,11,"3","donuts",FALSE,1,1916,"lexical","item"
"880",NA,35,12,"3","bananas",FALSE,1,1601,"plural","nothing"
"881",NA,35,13,"3","forks",TRUE,1,1434,"lexical","nothing"
"882",NA,35,14,"3","flowers",FALSE,1,1387,"lexical","item"
"883",NA,35,15,"3","scissors",TRUE,1,3066,"lexical","nothing"
"884",NA,35,16,"3","cats",FALSE,1,2182,"lexical","item"
"885",NA,35,17,"3","carrots",TRUE,1,5536,"plural","item"
"886",NA,35,18,"3","balloons",TRUE,1,1444,"plural","item"
"887",NA,35,19,"3","shovels",TRUE,1,2172,"lexical","nothing"
"888",NA,35,20,"3","cars",FALSE,1,2917,"plural","nothing"
"889",NA,35,21,"3","plants",FALSE,1,2546,"plural","nothing"
"890",NA,35,22,"3","guitars",FALSE,1,1831,"lexical","item"
"891",NA,35,23,"3","mittens",FALSE,1,2493,"plural","nothing"
"892",NA,35,24,"3","cakes",FALSE,1,2232,"lexical","item"
"893",NA,35,25,"3","kites",FALSE,1,6180,"plural","nothing"
"894",NA,35,26,"3","phones",TRUE,1,10004,"plural","item"
"895",NA,35,27,"3","bows",FALSE,1,5847,"lexical","item"
"896",NA,35,28,"3","apples",TRUE,1,2143,"lexical","nothing"
"897",NA,56,1,"0","purses",FALSE,1,2008,"plural","nothing"
"898",NA,56,2,"0","cakes",TRUE,1,1225,"plural","item"
"899",NA,56,3,"0","daisies",FALSE,1,1455,"lexical","item"
"900",NA,56,4,"0","scissors",TRUE,1,2350,"lexical","nothing"
"901",NA,56,5,"0","pencils",FALSE,1,1345,"lexical","item"
"902",NA,56,6,"0","apples",FALSE,1,936,"plural","nothing"
"903",NA,56,7,"0","carrots",FALSE,1,1188,"plural","nothing"
"904",NA,56,8,"0","presents",FALSE,0,1213,"lexical","nothing"
"905",NA,56,9,"0","forks",TRUE,1,1687,"lexical","nothing"
"906",NA,56,10,"0","fish",TRUE,1,2958,"plural","item"
"907",NA,56,11,"0","cars",TRUE,1,1430,"lexical","nothing"
"908",NA,56,12,"0","balloons",TRUE,1,1191,"plural","item"
"909",NA,56,13,"0","shovels",FALSE,1,1375,"plural","nothing"
"910",NA,56,14,"0","cookies",FALSE,1,1896,"lexical","item"
"911",NA,56,15,"0","dogs",TRUE,1,1463,"lexical","nothing"
"912",NA,56,16,"0","mittens",TRUE,1,1361,"plural","item"
"913",NA,56,17,"0","kites",TRUE,1,1881,"plural","item"
"914",NA,56,18,"0","bananas",FALSE,1,2062,"lexical","item"
"915",NA,56,19,"0","guitars",FALSE,1,1173,"plural","nothing"
"916",NA,56,20,"0","rainboots",FALSE,1,2402,"lexical","item"
"917",NA,56,21,"0","umbrellas",FALSE,1,1168,"lexical","item"
"918",NA,56,22,"0","donuts",FALSE,1,1088,"plural","nothing"
"919",NA,56,23,"0","buckets",FALSE,0,1135,"lexical","nothing"
"920",NA,56,24,"0","cats",TRUE,1,1345,"lexical","nothing"
"921",NA,56,25,"0","bows",TRUE,1,1462,"plural","item"
"922",NA,56,26,"0","phones",TRUE,1,1327,"plural","item"
"923",NA,56,27,"0","plants",FALSE,1,1296,"plural","nothing"
"924",NA,56,28,"0","flowers",FALSE,1,1879,"lexical","item"
"925",NA,31,1,"0","buckets",FALSE,1,1119,"lexical","item"
"926",NA,31,2,"0","daisies",TRUE,1,1070,"lexical","nothing"
"927",NA,31,3,"0","presents",TRUE,1,1542,"lexical","nothing"
"928",NA,31,4,"0","cats",TRUE,1,839,"plural","item"
"929",NA,31,5,"0","cookies",TRUE,1,1240,"lexical","nothing"
"930",NA,31,6,"0","phones",FALSE,1,1105,"plural","nothing"
"931",NA,31,7,"0","pencils",TRUE,1,841,"plural","item"
"932",NA,31,8,"0","umbrellas",FALSE,1,1011,"lexical","item"
"933",NA,31,9,"0","dogs",TRUE,1,781,"plural","item"
"934",NA,31,10,"0","shovels",TRUE,1,763,"plural","item"
"935",NA,31,11,"0","mittens",TRUE,1,700,"plural","item"
"936",NA,31,12,"0","carrots",TRUE,1,812,"plural","item"
"937",NA,31,13,"0","guitars",TRUE,1,1277,"lexical","nothing"
"938",NA,31,14,"0","flowers",TRUE,0,896,"lexical","item"
"939",NA,31,15,"0","fish",FALSE,1,1085,"lexical","item"
"940",NA,31,16,"0","cars",TRUE,1,1665,"lexical","nothing"
"941",NA,31,17,"0","plants",FALSE,1,1570,"plural","nothing"
"942",NA,31,18,"0","cakes",FALSE,1,2317,"plural","nothing"
"943",NA,31,19,"0","bows",FALSE,1,2954,"plural","nothing"
"944",NA,31,20,"0","rainboots",FALSE,1,974,"plural","nothing"
"945",NA,31,21,"0","balloons",TRUE,1,1055,"plural","item"
"946",NA,31,22,"0","donuts",FALSE,1,786,"plural","nothing"
"947",NA,31,23,"0","kites",TRUE,1,1556,"lexical","nothing"
"948",NA,31,24,"0","purses",TRUE,1,1406,"lexical","nothing"
"949",NA,31,25,"0","scissors",FALSE,1,1041,"lexical","item"
"950",NA,31,26,"0","forks",FALSE,1,1070,"lexical","item"
"951",NA,31,27,"0","bananas",FALSE,1,1160,"plural","nothing"
"952",NA,31,28,"0","apples",FALSE,1,938,"lexical","item"
"953",NA,59,1,"1","plants",TRUE,1,2105,"lexical","nothing"
"954",NA,59,2,"1","daisies",FALSE,1,1283,"plural","nothing"
"955",NA,59,3,"1","cats",TRUE,1,967,"plural","item"
"956",NA,59,4,"1","kites",FALSE,1,962,"lexical","item"
"957",NA,59,5,"1","bows",FALSE,1,1435,"lexical","item"
"958",NA,59,6,"1","cakes",FALSE,1,844,"plural","nothing"
"959",NA,59,7,"1","purses",TRUE,1,1071,"lexical","nothing"
"960",NA,59,8,"1","fish",FALSE,1,1372,"plural","nothing"
"961",NA,59,9,"1","carrots",TRUE,1,1388,"plural","item"
"962",NA,59,10,"1","cars",FALSE,1,1114,"lexical","item"
"963",NA,59,11,"1","shovels",FALSE,1,1059,"plural","nothing"
"964",NA,59,12,"1","dogs",FALSE,1,1090,"lexical","item"
"965",NA,59,13,"1","presents",TRUE,1,1450,"plural","item"
"966",NA,59,14,"1","mittens",TRUE,1,885,"plural","item"
"967",NA,59,15,"1","forks",FALSE,1,756,"plural","nothing"
"968",NA,59,16,"1","buckets",TRUE,0,1507,"lexical","item"
"969",NA,59,17,"1","donuts",TRUE,1,2756,"plural","item"
"970",NA,59,18,"1","umbrellas",FALSE,0,861,"lexical","nothing"
"971",NA,59,19,"1","phones",TRUE,1,906,"plural","item"
"972",NA,59,20,"1","flowers",TRUE,1,1330,"lexical","nothing"
"973",NA,59,21,"1","rainboots",TRUE,1,1851,"lexical","nothing"
"974",NA,59,22,"1","cookies",FALSE,1,1388,"plural","nothing"
"975",NA,59,23,"1","balloons",FALSE,1,2059,"lexical","item"
"976",NA,59,24,"1","apples",TRUE,1,1324,"lexical","nothing"
"977",NA,59,25,"1","scissors",FALSE,1,1278,"lexical","item"
"978",NA,59,26,"1","bananas",TRUE,1,980,"lexical","nothing"
"979",NA,59,27,"1","guitars",FALSE,1,1584,"plural","nothing"
"980",NA,59,28,"1","pencils",TRUE,1,1294,"plural","item"
"981",NA,132,1,"1","bananas",TRUE,1,2262,"plural","item"
"982",NA,132,2,"1","cats",TRUE,1,2007,"plural","item"
"983",NA,132,3,"1","dogs",FALSE,1,1818,"lexical","item"
"984",NA,132,4,"1","buckets",FALSE,1,2328,"plural","nothing"
"985",NA,132,5,"1","mittens",FALSE,1,2024,"lexical","item"
"986",NA,132,6,"1","pencils",FALSE,1,1362,"lexical","item"
"987",NA,132,7,"1","cookies",TRUE,1,1586,"lexical","nothing"
"988",NA,132,8,"1","phones",TRUE,1,1612,"lexical","nothing"
"989",NA,132,9,"1","rainboots",FALSE,1,2365,"lexical","item"
"990",NA,132,10,"1","cakes",FALSE,1,1677,"lexical","item"
"991",NA,132,11,"1","flowers",FALSE,1,2647,"plural","nothing"
"992",NA,132,12,"1","apples",FALSE,1,1913,"lexical","item"
"993",NA,132,13,"1","scissors",TRUE,1,1458,"lexical","nothing"
"994",NA,132,14,"1","forks",FALSE,1,2490,"plural","nothing"
"995",NA,132,15,"1","cars",TRUE,1,1357,"plural","item"
"996",NA,132,16,"1","guitars",TRUE,1,1281,"plural","item"
"997",NA,132,17,"1","umbrellas",TRUE,1,1636,"plural","item"
"998",NA,132,18,"1","shovels",TRUE,1,1274,"lexical","nothing"
"999",NA,132,19,"1","purses",FALSE,1,1906,"lexical","item"
"1000",NA,132,20,"1","daisies",FALSE,1,2389,"plural","nothing"
"1001",NA,132,21,"1","balloons",FALSE,1,1598,"plural","nothing"
"1002",NA,132,22,"1","kites",TRUE,1,1320,"plural","item"
"1003",NA,132,23,"1","fish",FALSE,1,1215,"plural","nothing"
"1004",NA,132,24,"1","plants",TRUE,1,1185,"lexical","nothing"
"1005",NA,132,25,"1","bows",FALSE,1,1554,"plural","nothing"
"1006",NA,132,26,"1","presents",TRUE,1,1258,"lexical","nothing"
"1007",NA,132,27,"1","carrots",TRUE,1,1552,"plural","item"
"1008",NA,132,28,"1","donuts",TRUE,1,1288,"lexical","nothing"
"1009",NA,123,1,"2","bows",FALSE,1,1971,"lexical","item"
"1010",NA,123,2,"2","cakes",FALSE,1,1022,"lexical","item"
"1011",NA,123,3,"2","plants",FALSE,1,1420,"plural","nothing"
"1012",NA,123,4,"2","bananas",FALSE,1,1295,"plural","nothing"
"1013",NA,123,5,"2","fish",TRUE,1,1971,"plural","item"
"1014",NA,123,6,"2","phones",FALSE,1,1020,"plural","nothing"
"1015",NA,123,7,"2","guitars",TRUE,1,1307,"lexical","nothing"
"1016",NA,123,8,"2","carrots",FALSE,1,1670,"lexical","item"
"1017",NA,123,9,"2","presents",FALSE,1,1372,"plural","nothing"
"1018",NA,123,10,"2","umbrellas",TRUE,1,1134,"plural","item"
"1019",NA,123,11,"2","mittens",FALSE,1,1059,"lexical","item"
"1020",NA,123,12,"2","cats",TRUE,1,997,"plural","item"
"1021",NA,123,13,"2","shovels",FALSE,1,1409,"plural","nothing"
"1022",NA,123,14,"2","donuts",TRUE,1,1183,"lexical","nothing"
"1023",NA,123,15,"2","pencils",FALSE,1,1209,"lexical","item"
"1024",NA,123,16,"2","flowers",FALSE,1,1571,"plural","nothing"
"1025",NA,123,17,"2","daisies",FALSE,1,1096,"lexical","item"
"1026",NA,123,18,"2","rainboots",FALSE,1,1120,"lexical","item"
"1027",NA,123,19,"2","cookies",TRUE,1,1408,"plural","item"
"1028",NA,123,20,"2","kites",TRUE,1,1470,"lexical","nothing"
"1029",NA,123,21,"2","scissors",TRUE,1,983,"plural","item"
"1030",NA,123,22,"2","forks",TRUE,1,1183,"lexical","nothing"
"1031",NA,123,23,"2","purses",TRUE,1,2033,"plural","item"
"1032",NA,123,24,"2","balloons",TRUE,1,945,"lexical","nothing"
"1033",NA,123,25,"2","buckets",TRUE,1,1483,"lexical","nothing"
"1034",NA,123,26,"2","cars",FALSE,1,1071,"plural","nothing"
"1035",NA,123,27,"2","apples",TRUE,1,896,"plural","item"
"1036",NA,123,28,"2","dogs",TRUE,1,845,"lexical","nothing"
"1037",NA,45,1,"2","purses",TRUE,1,5737,"plural","item"
"1038",NA,45,2,"2","bows",FALSE,1,1729,"plural","nothing"
"1039",NA,45,3,"2","scissors",TRUE,1,1185,"lexical","nothing"
"1040",NA,45,4,"2","forks",TRUE,1,1181,"plural","item"
"1041",NA,45,5,"2","guitars",TRUE,1,1190,"lexical","nothing"
"1042",NA,45,6,"2","dogs",TRUE,1,1681,"plural","item"
"1043",NA,45,7,"2","rainboots",TRUE,1,1608,"lexical","nothing"
"1044",NA,45,8,"2","balloons",FALSE,1,1962,"lexical","item"
"1045",NA,45,9,"2","carrots",FALSE,1,1752,"plural","nothing"
"1046",NA,45,10,"2","donuts",TRUE,1,2977,"plural","item"
"1047",NA,45,11,"2","kites",TRUE,1,3222,"plural","item"
"1048",NA,45,12,"2","cats",FALSE,1,1738,"lexical","item"
"1049",NA,45,13,"2","cars",TRUE,1,4182,"plural","item"
"1050",NA,45,14,"2","flowers",TRUE,1,1630,"lexical","nothing"
"1051",NA,45,15,"2","plants",FALSE,1,1218,"lexical","item"
"1052",NA,45,16,"2","buckets",FALSE,1,1033,"lexical","item"
"1053",NA,45,17,"2","phones",TRUE,1,635,"plural","item"
"1054",NA,45,18,"2","umbrellas",FALSE,1,1060,"plural","nothing"
"1055",NA,45,19,"2","bananas",FALSE,1,646,"plural","nothing"
"1056",NA,45,20,"2","presents",FALSE,1,782,"plural","nothing"
"1057",NA,45,21,"2","mittens",FALSE,1,733,"plural","nothing"
"1058",NA,45,22,"2","cakes",FALSE,1,1253,"lexical","item"
"1059",NA,45,23,"2","shovels",FALSE,0,882,"lexical","nothing"
"1060",NA,45,24,"2","daisies",FALSE,1,1855,"lexical","item"
"1061",NA,45,25,"2","apples",FALSE,1,1046,"plural","nothing"
"1062",NA,45,26,"2","pencils",FALSE,1,1729,"lexical","item"
"1063",NA,45,27,"2","fish",TRUE,1,1942,"lexical","nothing"
"1064",NA,45,28,"2","cookies",TRUE,1,932,"lexical","nothing"
"1065",NA,9,1,"2","cookies",FALSE,1,2312,"lexical","item"
"1066",NA,9,2,"2","buckets",TRUE,1,1843,"plural","item"
"1067",NA,9,3,"2","shovels",TRUE,1,1470,"lexical","nothing"
"1068",NA,9,4,"2","umbrellas",TRUE,1,1774,"plural","item"
"1069",NA,9,5,"2","scissors",FALSE,1,1745,"lexical","item"
"1070",NA,9,6,"2","plants",TRUE,1,1457,"lexical","nothing"
"1071",NA,9,7,"2","presents",FALSE,1,1592,"lexical","item"
"1072",NA,9,8,"2","phones",TRUE,1,1419,"plural","item"
"1073",NA,9,9,"2","donuts",FALSE,1,1620,"plural","nothing"
"1074",NA,9,10,"2","carrots",TRUE,1,1536,"lexical","nothing"
"1075",NA,9,11,"2","guitars",FALSE,1,1514,"plural","nothing"
"1076",NA,9,12,"2","pencils",TRUE,1,1278,"lexical","nothing"
"1077",NA,9,13,"2","cars",TRUE,1,1490,"plural","item"
"1078",NA,9,14,"2","cakes",TRUE,1,987,"lexical","nothing"
"1079",NA,9,15,"2","bows",FALSE,1,1999,"plural","nothing"
"1080",NA,9,16,"2","flowers",TRUE,1,1711,"plural","item"
"1081",NA,9,17,"2","kites",TRUE,1,1439,"plural","item"
"1082",NA,9,18,"2","purses",FALSE,1,1461,"lexical","item"
"1083",NA,9,19,"2","dogs",TRUE,1,1649,"lexical","nothing"
"1084",NA,9,20,"2","mittens",FALSE,1,1361,"plural","nothing"
"1085",NA,9,21,"2","forks",FALSE,1,1317,"plural","nothing"
"1086",NA,9,22,"2","rainboots",FALSE,1,1766,"plural","nothing"
"1087",NA,9,23,"2","fish",FALSE,1,1317,"lexical","item"
"1088",NA,9,24,"2","bananas",TRUE,1,1110,"plural","item"
"1089",NA,9,25,"2","cats",FALSE,1,1669,"lexical","item"
"1090",NA,9,26,"2","apples",TRUE,1,1435,"lexical","nothing"
"1091",NA,9,27,"2","daisies",FALSE,1,1572,"lexical","item"
"1092",NA,9,28,"2","balloons",TRUE,0,1266,"plural","nothing"
"1093",NA,174,1,"2","donuts",TRUE,1,2109,"plural","item"
"1094",NA,174,2,"2","bows",FALSE,0,1193,"lexical","nothing"
"1095",NA,174,3,"2","balloons",FALSE,1,2338,"plural","nothing"
"1096",NA,174,4,"2","dogs",FALSE,0,1559,"plural","item"
"1097",NA,174,5,"2","presents",FALSE,1,1549,"lexical","item"
"1098",NA,174,6,"2","cats",TRUE,1,1611,"lexical","nothing"
"1099",NA,174,7,"2","apples",TRUE,1,1439,"lexical","nothing"
"1100",NA,174,8,"2","pencils",TRUE,1,1564,"plural","item"
"1101",NA,174,9,"2","scissors",FALSE,1,1461,"lexical","item"
"1102",NA,174,10,"2","phones",FALSE,1,1701,"plural","nothing"
"1103",NA,174,11,"2","mittens",FALSE,1,1543,"lexical","item"
"1104",NA,174,12,"2","cars",FALSE,1,1597,"lexical","item"
"1105",NA,174,13,"2","cookies",TRUE,1,1372,"lexical","nothing"
"1106",NA,174,14,"2","flowers",FALSE,1,1695,"lexical","item"
"1107",NA,174,15,"2","shovels",FALSE,1,1503,"lexical","item"
"1108",NA,174,16,"2","purses",FALSE,1,1680,"plural","nothing"
"1109",NA,174,17,"2","bananas",TRUE,1,1317,"lexical","nothing"
"1110",NA,174,18,"2","buckets",TRUE,1,1762,"lexical","nothing"
"1111",NA,174,19,"2","carrots",TRUE,1,2928,"lexical","nothing"
"1112",NA,174,20,"2","guitars",FALSE,1,2092,"lexical","item"
"1113",NA,174,21,"2","cakes",TRUE,1,1379,"plural","item"
"1114",NA,174,22,"2","kites",FALSE,1,1319,"plural","nothing"
"1115",NA,174,23,"2","fish",TRUE,1,1333,"plural","item"
"1116",NA,174,24,"2","forks",TRUE,1,1110,"plural","item"
"1117",NA,174,25,"2","rainboots",FALSE,0,1502,"plural","item"
"1118",NA,174,26,"2","daisies",FALSE,1,1811,"plural","nothing"
"1119",NA,174,27,"2","plants",FALSE,1,1380,"plural","nothing"
"1120",NA,174,28,"2","umbrellas",FALSE,1,1081,"plural","nothing"
"1121",NA,53,1,"2","carrots",TRUE,1,1619,"lexical","nothing"
"1122",NA,53,2,"2","purses",TRUE,1,2213,"lexical","nothing"
"1123",NA,53,3,"2","bananas",FALSE,1,1509,"lexical","item"
"1124",NA,53,4,"2","forks",FALSE,1,1238,"lexical","item"
"1125",NA,53,5,"2","cookies",FALSE,1,1372,"plural","nothing"
"1126",NA,53,6,"2","cars",FALSE,1,1238,"plural","nothing"
"1127",NA,53,7,"2","guitars",TRUE,1,1394,"lexical","nothing"
"1128",NA,53,8,"2","shovels",FALSE,1,1319,"plural","nothing"
"1129",NA,53,9,"2","umbrellas",FALSE,1,1667,"lexical","item"
"1130",NA,53,10,"2","cats",FALSE,1,1422,"plural","nothing"
"1131",NA,53,11,"2","balloons",FALSE,0,828,"lexical","nothing"
"1132",NA,53,12,"2","dogs",TRUE,1,1262,"plural","item"
"1133",NA,53,13,"2","daisies",TRUE,1,1343,"plural","item"
"1134",NA,53,14,"2","fish",TRUE,1,847,"plural","item"
"1135",NA,53,15,"2","presents",FALSE,1,1407,"lexical","item"
"1136",NA,53,16,"2","flowers",FALSE,1,2326,"lexical","item"
"1137",NA,53,17,"2","buckets",TRUE,1,1445,"plural","item"
"1138",NA,53,18,"2","plants",TRUE,1,1367,"lexical","nothing"
"1139",NA,53,19,"2","cakes",FALSE,1,1253,"lexical","item"
"1140",NA,53,20,"2","donuts",TRUE,1,1834,"plural","item"
"1141",NA,53,21,"2","phones",FALSE,1,1370,"plural","nothing"
"1142",NA,53,22,"2","pencils",FALSE,1,2137,"lexical","item"
"1143",NA,53,23,"2","apples",FALSE,1,1541,"plural","nothing"
"1144",NA,53,24,"2","mittens",TRUE,1,1130,"plural","item"
"1145",NA,53,25,"2","kites",FALSE,1,1007,"plural","nothing"
"1146",NA,53,26,"2","scissors",TRUE,1,1563,"lexical","nothing"
"1147",NA,53,27,"2","bows",TRUE,1,1224,"lexical","nothing"
"1148",NA,53,28,"2","rainboots",TRUE,1,2574,"plural","item"
"1149",NA,103,1,"0","plants",TRUE,1,948,"plural","item"
"1150",NA,103,2,"0","shovels",FALSE,0,806,"lexical","nothing"
"1151",NA,103,3,"0","daisies",TRUE,1,1078,"lexical","nothing"
"1152",NA,103,4,"0","purses",TRUE,1,976,"plural","item"
"1153",NA,103,5,"0","forks",FALSE,1,1714,"plural","nothing"
"1154",NA,103,6,"0","rainboots",TRUE,1,846,"lexical","nothing"
"1155",NA,103,7,"0","cats",FALSE,1,983,"lexical","item"
"1156",NA,103,8,"0","kites",TRUE,1,943,"plural","item"
"1157",NA,103,9,"0","fish",TRUE,0,1180,"plural","nothing"
"1158",NA,103,10,"0","cookies",TRUE,1,806,"lexical","nothing"
"1159",NA,103,11,"0","pencils",FALSE,1,1028,"lexical","item"
"1160",NA,103,12,"0","umbrellas",TRUE,1,749,"plural","item"
"1161",NA,103,13,"0","phones",TRUE,1,786,"lexical","nothing"
"1162",NA,103,14,"0","donuts",TRUE,1,979,"plural","item"
"1163",NA,103,15,"0","apples",FALSE,1,1105,"lexical","item"
"1164",NA,103,16,"0","flowers",FALSE,1,1062,"lexical","item"
"1165",NA,103,17,"0","carrots",FALSE,1,1064,"plural","nothing"
"1166",NA,103,18,"0","scissors",FALSE,1,1212,"plural","nothing"
"1167",NA,103,19,"0","bananas",TRUE,1,1272,"plural","item"
"1168",NA,103,20,"0","balloons",FALSE,1,1208,"plural","nothing"
"1169",NA,103,21,"0","presents",FALSE,1,962,"lexical","item"
"1170",NA,103,22,"0","bows",TRUE,0,1102,"lexical","item"
"1171",NA,103,23,"0","guitars",FALSE,0,1542,"plural","item"
"1172",NA,103,24,"0","cars",FALSE,1,1100,"plural","nothing"
"1173",NA,103,25,"0","buckets",TRUE,1,1218,"lexical","nothing"
"1174",NA,103,26,"0","dogs",FALSE,1,1168,"lexical","item"
"1175",NA,103,27,"0","cakes",TRUE,1,806,"lexical","nothing"
"1176",NA,103,28,"0","mittens",FALSE,1,1243,"plural","nothing"
"1177",NA,60,1,"3","cars",TRUE,1,1601,"plural","item"
"1178",NA,60,2,"3","guitars",FALSE,0,1606,"plural","item"
"1179",NA,60,3,"3","umbrellas",TRUE,0,1548,"plural","nothing"
"1180",NA,60,4,"3","donuts",FALSE,0,2124,"plural","item"
"1181",NA,60,5,"3","plants",TRUE,0,4085,"lexical","item"
"1182",NA,60,6,"3","rainboots",FALSE,1,1190,"plural","nothing"
"1183",NA,60,7,"3","purses",FALSE,1,2924,"plural","nothing"
"1184",NA,60,8,"3","balloons",TRUE,0,1948,"lexical","item"
"1185",NA,60,9,"3","bananas",TRUE,0,1244,"lexical","item"
"1186",NA,60,10,"3","presents",TRUE,1,3269,"lexical","nothing"
"1187",NA,60,11,"3","phones",TRUE,0,3454,"lexical","item"
"1188",NA,60,12,"3","carrots",TRUE,1,2392,"lexical","nothing"
"1189",NA,60,13,"3","kites",TRUE,0,897,"lexical","item"
"1190",NA,60,14,"3","cats",TRUE,1,1510,"lexical","nothing"
"1191",NA,60,15,"3","forks",TRUE,1,1412,"lexical","nothing"
"1192",NA,60,16,"3","pencils",TRUE,0,764,"plural","nothing"
"1193",NA,60,17,"3","shovels",TRUE,1,780,"plural","item"
"1194",NA,60,18,"3","buckets",TRUE,1,4828,"plural","item"
"1195",NA,60,19,"3","scissors",FALSE,1,2468,"plural","nothing"
"1196",NA,60,20,"3","cakes",TRUE,1,5046,"lexical","nothing"
"1197",NA,60,21,"3","fish",TRUE,1,2541,"lexical","nothing"
"1198",NA,60,22,"3","flowers",FALSE,1,2332,"lexical","item"
"1199",NA,60,23,"3","dogs",TRUE,0,1990,"plural","nothing"
"1200",NA,60,24,"3","daisies",TRUE,1,2292,"lexical","nothing"
"1201",NA,60,25,"3","mittens",TRUE,1,2084,"plural","item"
"1202",NA,60,26,"3","apples",FALSE,1,3062,"lexical","item"
"1203",NA,60,27,"3","cookies",FALSE,1,2236,"plural","nothing"
"1204",NA,60,28,"3","bows",TRUE,1,3086,"plural","item"
"1205",NA,1,1,"1","mittens",FALSE,0,887,"lexical","nothing"
"1206",NA,1,2,"1","scissors",TRUE,1,804,"plural","item"
"1207",NA,1,3,"1","kites",FALSE,1,826,"plural","nothing"
"1208",NA,1,4,"1","guitars",FALSE,1,983,"lexical","item"
"1209",NA,1,5,"1","rainboots",FALSE,1,983,"lexical","item"
"1210",NA,1,6,"1","balloons",FALSE,1,1171,"plural","nothing"
"1211",NA,1,7,"1","cars",FALSE,1,1095,"lexical","item"
"1212",NA,1,8,"1","shovels",TRUE,1,1324,"lexical","nothing"
"1213",NA,1,9,"1","cookies",FALSE,1,1299,"plural","nothing"
"1214",NA,1,10,"1","cats",TRUE,1,1471,"lexical","nothing"
"1215",NA,1,11,"1","umbrellas",FALSE,1,834,"lexical","item"
"1216",NA,1,12,"1","plants",FALSE,1,1042,"lexical","item"
"1217",NA,1,13,"1","bows",TRUE,1,1522,"lexical","nothing"
"1218",NA,1,14,"1","cakes",TRUE,1,1201,"plural","item"
"1219",NA,1,15,"1","presents",FALSE,0,787,"lexical","nothing"
"1220",NA,1,16,"1","pencils",FALSE,1,1816,"plural","nothing"
"1221",NA,1,17,"1","donuts",TRUE,1,823,"plural","item"
"1222",NA,1,18,"1","daisies",TRUE,1,2807,"lexical","nothing"
"1223",NA,1,19,"1","forks",FALSE,1,1457,"plural","nothing"
"1224",NA,1,20,"1","buckets",TRUE,1,1305,"plural","item"
"1225",NA,1,21,"1","dogs",FALSE,1,1884,"plural","nothing"
"1226",NA,1,22,"1","apples",FALSE,1,1398,"lexical","item"
"1227",NA,1,23,"1","bananas",FALSE,1,971,"lexical","item"
"1228",NA,1,24,"1","phones",TRUE,1,1451,"plural","item"
"1229",NA,1,25,"1","carrots",FALSE,0,1035,"plural","item"
"1230",NA,1,26,"1","flowers",FALSE,1,1580,"plural","nothing"
"1231",NA,1,27,"1","fish",TRUE,1,885,"plural","item"
"1232",NA,1,28,"1","purses",TRUE,1,2145,"lexical","nothing"
"1233",NA,42,1,"1","balloons",FALSE,1,1574,"lexical","item"
"1234",NA,42,2,"1","pencils",TRUE,1,1576,"lexical","nothing"
"1235",NA,42,3,"1","buckets",FALSE,1,2108,"lexical","item"
"1236",NA,42,4,"1","cakes",TRUE,1,2813,"plural","item"
"1237",NA,42,5,"1","daisies",TRUE,1,1911,"lexical","nothing"
"1238",NA,42,6,"1","flowers",TRUE,1,1497,"plural","item"
"1239",NA,42,7,"1","dogs",FALSE,1,2881,"lexical","item"
"1240",NA,42,8,"1","scissors",TRUE,1,1641,"plural","item"
"1241",NA,42,9,"1","kites",TRUE,1,1419,"plural","item"
"1242",NA,42,10,"1","apples",FALSE,1,1411,"lexical","item"
"1243",NA,42,11,"1","cookies",FALSE,1,1996,"plural","nothing"
"1244",NA,42,12,"1","bows",TRUE,0,3815,"plural","nothing"
"1245",NA,42,13,"1","donuts",FALSE,1,2130,"lexical","item"
"1246",NA,42,14,"1","mittens",TRUE,1,2180,"lexical","nothing"
"1247",NA,42,15,"1","purses",FALSE,1,2107,"plural","nothing"
"1248",NA,42,16,"1","umbrellas",FALSE,1,4368,"lexical","item"
"1249",NA,42,17,"1","guitars",TRUE,1,2439,"lexical","nothing"
"1250",NA,42,18,"1","shovels",TRUE,1,1457,"plural","item"
"1251",NA,42,19,"1","presents",TRUE,1,1780,"lexical","nothing"
"1252",NA,42,20,"1","phones",FALSE,1,1570,"plural","nothing"
"1253",NA,42,21,"1","rainboots",TRUE,1,1929,"plural","item"
"1254",NA,42,22,"1","fish",FALSE,1,1146,"lexical","item"
"1255",NA,42,23,"1","carrots",TRUE,1,1785,"lexical","nothing"
"1256",NA,42,24,"1","cars",TRUE,1,1538,"lexical","nothing"
"1257",NA,42,25,"1","forks",FALSE,1,1249,"plural","nothing"
"1258",NA,42,26,"1","cats",TRUE,1,1186,"plural","item"
"1259",NA,42,27,"1","bananas",FALSE,1,1969,"plural","nothing"
"1260",NA,42,28,"1","plants",FALSE,1,2170,"plural","nothing"
"1261",NA,82,1,"3","dogs",TRUE,1,1869,"lexical","nothing"
"1262",NA,82,2,"3","plants",TRUE,1,1837,"plural","item"
"1263",NA,82,3,"3","apples",TRUE,1,1720,"lexical","nothing"
"1264",NA,82,4,"3","pencils",FALSE,1,1405,"lexical","item"
"1265",NA,82,5,"3","umbrellas",TRUE,1,1190,"plural","item"
"1266",NA,82,6,"3","carrots",TRUE,1,1617,"lexical","nothing"
"1267",NA,82,7,"3","cats",TRUE,0,1491,"plural","nothing"
"1268",NA,82,8,"3","kites",FALSE,1,1560,"plural","nothing"
"1269",NA,82,9,"3","bows",TRUE,0,1742,"plural","nothing"
"1270",NA,82,10,"3","phones",TRUE,1,1525,"plural","item"
"1271",NA,82,11,"3","bananas",FALSE,1,1272,"lexical","item"
"1272",NA,82,12,"3","forks",FALSE,1,1659,"plural","nothing"
"1273",NA,82,13,"3","cars",TRUE,1,1473,"lexical","nothing"
"1274",NA,82,14,"3","presents",TRUE,1,1582,"lexical","nothing"
"1275",NA,82,15,"3","flowers",TRUE,1,1225,"plural","item"
"1276",NA,82,16,"3","scissors",TRUE,1,1199,"lexical","nothing"
"1277",NA,82,17,"3","balloons",FALSE,1,1391,"lexical","item"
"1278",NA,82,18,"3","guitars",FALSE,1,1321,"lexical","item"
"1279",NA,82,19,"3","shovels",FALSE,1,1703,"plural","nothing"
"1280",NA,82,20,"3","daisies",FALSE,1,1816,"lexical","item"
"1281",NA,82,21,"3","mittens",TRUE,1,1299,"lexical","nothing"
"1282",NA,82,22,"3","cookies",TRUE,1,1218,"plural","item"
"1283",NA,82,23,"3","buckets",TRUE,1,1032,"plural","item"
"1284",NA,82,24,"3","fish",TRUE,1,896,"plural","item"
"1285",NA,82,25,"3","cakes",FALSE,1,1228,"lexical","item"
"1286",NA,82,26,"3","donuts",FALSE,1,1097,"lexical","item"
"1287",NA,82,27,"3","purses",FALSE,1,1094,"plural","nothing"
"1288",NA,82,28,"3","rainboots",FALSE,1,1387,"plural","nothing"
"1289",NA,86,1,"3","cakes",TRUE,1,2337,"lexical","nothing"
"1290",NA,86,2,"3","pencils",TRUE,1,2247,"plural","item"
"1291",NA,86,3,"3","cookies",FALSE,1,1509,"plural","nothing"
"1292",NA,86,4,"3","fish",TRUE,1,1660,"lexical","nothing"
"1293",NA,86,5,"3","bananas",TRUE,1,1134,"plural","item"
"1294",NA,86,6,"3","donuts",FALSE,1,1373,"lexical","item"
"1295",NA,86,7,"3","cars",TRUE,1,1389,"lexical","nothing"
"1296",NA,86,8,"3","flowers",FALSE,1,2317,"plural","nothing"
"1297",NA,86,9,"3","kites",FALSE,1,1574,"plural","nothing"
"1298",NA,86,10,"3","apples",FALSE,1,1806,"lexical","item"
"1299",NA,86,11,"3","umbrellas",TRUE,1,1245,"plural","item"
"1300",NA,86,12,"3","shovels",TRUE,1,1327,"lexical","nothing"
"1301",NA,86,13,"3","phones",FALSE,1,1661,"lexical","item"
"1302",NA,86,14,"3","daisies",TRUE,1,1326,"plural","item"
"1303",NA,86,15,"3","dogs",TRUE,1,1199,"plural","item"
"1304",NA,86,16,"3","presents",FALSE,1,1549,"lexical","item"
"1305",NA,86,17,"3","purses",FALSE,1,1432,"plural","nothing"
"1306",NA,86,18,"3","balloons",FALSE,1,1374,"plural","nothing"
"1307",NA,86,19,"3","guitars",FALSE,1,1202,"plural","nothing"
"1308",NA,86,20,"3","buckets",FALSE,0,1254,"lexical","nothing"
"1309",NA,86,21,"3","carrots",TRUE,1,1862,"plural","item"
"1310",NA,86,22,"3","cats",TRUE,1,1231,"lexical","nothing"
"1311",NA,86,23,"3","plants",FALSE,1,1446,"lexical","item"
"1312",NA,86,24,"3","rainboots",TRUE,0,2981,"lexical","item"
"1313",NA,86,25,"3","bows",TRUE,1,2125,"plural","item"
"1314",NA,86,26,"3","forks",FALSE,1,1525,"lexical","item"
"1315",NA,86,27,"3","mittens",FALSE,1,1719,"plural","nothing"
"1316",NA,86,28,"3","scissors",TRUE,1,1684,"lexical","nothing"
"1317",NA,191,1,"0","bows",FALSE,1,1885,"plural","nothing"
"1318",NA,191,2,"0","shovels",FALSE,1,1851,"plural","nothing"
"1319",NA,191,3,"0","cars",TRUE,1,1474,"lexical","nothing"
"1320",NA,191,4,"0","buckets",TRUE,1,1519,"plural","item"
"1321",NA,191,5,"0","dogs",TRUE,1,1479,"lexical","nothing"
"1322",NA,191,6,"0","fish",FALSE,1,1557,"plural","nothing"
"1323",NA,191,7,"0","phones",FALSE,1,1788,"lexical","item"
"1324",NA,191,8,"0","bananas",TRUE,1,1645,"lexical","nothing"
"1325",NA,191,9,"0","mittens",TRUE,1,1132,"plural","item"
"1326",NA,191,10,"0","flowers",TRUE,1,1909,"plural","item"
"1327",NA,191,11,"0","presents",TRUE,1,1181,"lexical","nothing"
"1328",NA,191,12,"0","balloons",FALSE,1,1102,"lexical","item"
"1329",NA,191,13,"0","kites",FALSE,1,1256,"plural","nothing"
"1330",NA,191,14,"0","carrots",TRUE,1,1226,"plural","item"
"1331",NA,191,15,"0","donuts",FALSE,1,1091,"lexical","item"
"1332",NA,191,16,"0","forks",FALSE,1,1139,"plural","nothing"
"1333",NA,191,17,"0","apples",FALSE,1,2565,"plural","nothing"
"1334",NA,191,18,"0","guitars",TRUE,1,1959,"lexical","nothing"
"1335",NA,191,19,"0","daisies",FALSE,1,2852,"plural","nothing"
"1336",NA,191,20,"0","rainboots",FALSE,0,1822,"plural","item"
"1337",NA,191,21,"0","cakes",TRUE,1,1300,"plural","item"
"1338",NA,191,22,"0","cats",TRUE,1,1429,"lexical","nothing"
"1339",NA,191,23,"0","umbrellas",TRUE,1,934,"plural","item"
"1340",NA,191,24,"0","purses",FALSE,1,2159,"lexical","item"
"1341",NA,191,25,"0","cookies",FALSE,1,1441,"lexical","item"
"1342",NA,191,26,"0","scissors",FALSE,1,1981,"lexical","item"
"1343",NA,191,27,"0","pencils",TRUE,1,1463,"lexical","nothing"
"1344",NA,191,28,"0","plants",FALSE,1,1783,"lexical","item"
"1345",NA,105,1,"0","carrots",FALSE,1,1668,"plural","nothing"
"1346",NA,105,2,"0","pencils",TRUE,1,2215,"lexical","nothing"
"1347",NA,105,3,"0","cookies",TRUE,1,1192,"plural","item"
"1348",NA,105,4,"0","purses",FALSE,1,997,"plural","nothing"
"1349",NA,105,5,"0","cats",TRUE,1,1435,"plural","item"
"1350",NA,105,6,"0","forks",FALSE,1,2952,"plural","nothing"
"1351",NA,105,7,"0","shovels",FALSE,1,1467,"plural","nothing"
"1352",NA,105,8,"0","kites",TRUE,1,1803,"plural","item"
"1353",NA,105,9,"0","cars",TRUE,1,1419,"lexical","nothing"
"1354",NA,105,10,"0","guitars",TRUE,1,1253,"plural","item"
"1355",NA,105,11,"0","flowers",TRUE,1,1141,"lexical","nothing"
"1356",NA,105,12,"0","plants",FALSE,1,1492,"lexical","item"
"1357",NA,105,13,"0","presents",TRUE,1,1863,"lexical","nothing"
"1358",NA,105,14,"0","apples",TRUE,1,1252,"plural","item"
"1359",NA,105,15,"0","buckets",FALSE,1,1107,"lexical","item"
"1360",NA,105,16,"0","fish",FALSE,1,1511,"plural","nothing"
"1361",NA,105,17,"0","scissors",FALSE,1,1323,"lexical","item"
"1362",NA,105,18,"0","donuts",TRUE,1,1435,"lexical","nothing"
"1363",NA,105,19,"0","mittens",FALSE,1,2053,"lexical","item"
"1364",NA,105,20,"0","cakes",TRUE,1,1512,"plural","item"
"1365",NA,105,21,"0","umbrellas",TRUE,1,949,"plural","item"
"1366",NA,105,22,"0","balloons",FALSE,1,1450,"plural","nothing"
"1367",NA,105,23,"0","rainboots",FALSE,1,2635,"lexical","item"
"1368",NA,105,24,"0","phones",TRUE,1,1541,"lexical","nothing"
"1369",NA,105,25,"0","daisies",TRUE,1,1784,"lexical","nothing"
"1370",NA,105,26,"0","bows",FALSE,1,1885,"plural","nothing"
"1371",NA,105,27,"0","bananas",FALSE,1,1115,"lexical","item"
"1372",NA,105,28,"0","dogs",FALSE,1,1221,"lexical","item"
"1373",NA,151,1,"1","dogs",TRUE,1,1293,"lexical","nothing"
"1374",NA,151,2,"1","bananas",TRUE,1,921,"plural","item"
"1375",NA,151,3,"1","kites",TRUE,1,745,"plural","item"
"1376",NA,151,4,"1","shovels",FALSE,1,1752,"lexical","item"
"1377",NA,151,5,"1","presents",TRUE,1,778,"plural","item"
"1378",NA,151,6,"1","cakes",FALSE,1,1103,"plural","nothing"
"1379",NA,151,7,"1","buckets",TRUE,1,840,"plural","item"
"1380",NA,151,8,"1","umbrellas",FALSE,1,905,"plural","nothing"
"1381",NA,151,9,"1","carrots",FALSE,1,1598,"lexical","item"
"1382",NA,151,10,"1","bows",FALSE,1,1791,"plural","nothing"
"1383",NA,151,11,"1","pencils",TRUE,1,1097,"plural","item"
"1384",NA,151,12,"1","guitars",TRUE,1,1233,"lexical","nothing"
"1385",NA,151,13,"1","plants",TRUE,1,857,"plural","item"
"1386",NA,151,14,"1","cookies",FALSE,1,784,"plural","nothing"
"1387",NA,151,15,"1","cats",TRUE,1,1265,"lexical","nothing"
"1388",NA,151,16,"1","phones",FALSE,1,1940,"plural","nothing"
"1389",NA,151,17,"1","scissors",TRUE,1,1021,"lexical","nothing"
"1390",NA,151,18,"1","forks",FALSE,1,1081,"lexical","item"
"1391",NA,151,19,"1","apples",FALSE,1,809,"plural","nothing"
"1392",NA,151,20,"1","mittens",TRUE,1,968,"lexical","nothing"
"1393",NA,151,21,"1","donuts",TRUE,1,993,"lexical","nothing"
"1394",NA,151,22,"1","purses",FALSE,1,1026,"lexical","item"
"1395",NA,151,23,"1","balloons",TRUE,1,943,"lexical","nothing"
"1396",NA,151,24,"1","rainboots",FALSE,1,1273,"lexical","item"
"1397",NA,151,25,"1","flowers",FALSE,0,1472,"plural","item"
"1398",NA,151,26,"1","daisies",FALSE,1,936,"plural","nothing"
"1399",NA,151,27,"1","cars",FALSE,1,842,"lexical","item"
"1400",NA,151,28,"1","fish",FALSE,1,937,"lexical","item"
"1401",NA,146,1,"2","forks",FALSE,1,6465,"plural","nothing"
"1402",NA,146,2,"2","carrots",FALSE,1,1075,"plural","nothing"
"1403",NA,146,3,"2","umbrellas",FALSE,0,754,"lexical","nothing"
"1404",NA,146,4,"2","shovels",TRUE,1,1272,"lexical","nothing"
"1405",NA,146,5,"2","cats",FALSE,1,819,"plural","nothing"
"1406",NA,146,6,"2","phones",FALSE,1,1252,"lexical","item"
"1407",NA,146,7,"2","rainboots",TRUE,1,1188,"plural","item"
"1408",NA,146,8,"2","cakes",FALSE,1,871,"lexical","item"
"1409",NA,146,9,"2","pencils",TRUE,1,1094,"plural","item"
"1410",NA,146,10,"2","plants",TRUE,1,1205,"lexical","nothing"
"1411",NA,146,11,"2","buckets",TRUE,1,969,"lexical","nothing"
"1412",NA,146,12,"2","bananas",TRUE,1,796,"plural","item"
"1413",NA,146,13,"2","apples",TRUE,0,539,"plural","nothing"
"1414",NA,146,14,"2","daisies",TRUE,1,963,"lexical","nothing"
"1415",NA,146,15,"2","dogs",FALSE,1,787,"lexical","item"
"1416",NA,146,16,"2","cars",TRUE,1,871,"plural","item"
"1417",NA,146,17,"2","bows",FALSE,1,840,"plural","nothing"
"1418",NA,146,18,"2","kites",TRUE,0,688,"lexical","item"
"1419",NA,146,19,"2","mittens",FALSE,1,939,"plural","nothing"
"1420",NA,146,20,"2","presents",TRUE,1,949,"plural","item"
"1421",NA,146,21,"2","scissors",FALSE,0,578,"lexical","nothing"
"1422",NA,146,22,"2","cookies",TRUE,1,675,"plural","item"
"1423",NA,146,23,"2","donuts",FALSE,1,674,"plural","nothing"
"1424",NA,146,24,"2","balloons",FALSE,1,787,"lexical","item"
"1425",NA,146,25,"2","flowers",TRUE,1,829,"plural","item"
"1426",NA,146,26,"2","fish",FALSE,1,792,"lexical","item"
"1427",NA,146,27,"2","guitars",TRUE,1,1560,"lexical","nothing"
"1428",NA,146,28,"2","purses",FALSE,1,1409,"lexical","item"
"1429",NA,90,1,"2","guitars",TRUE,1,1625,"plural","item"
"1430",NA,90,2,"2","cars",FALSE,0,1141,"lexical","nothing"
"1431",NA,90,3,"2","bananas",FALSE,0,1062,"lexical","nothing"
"1432",NA,90,4,"2","daisies",FALSE,1,1219,"lexical","item"
"1433",NA,90,5,"2","phones",TRUE,0,1297,"plural","nothing"
"1434",NA,90,6,"2","shovels",FALSE,1,1484,"plural","nothing"
"1435",NA,90,7,"2","kites",FALSE,1,1328,"lexical","item"
"1436",NA,90,8,"2","umbrellas",FALSE,1,1422,"lexical","item"
"1437",NA,90,9,"2","pencils",FALSE,1,1203,"plural","nothing"
"1438",NA,90,10,"2","buckets",TRUE,1,1516,"lexical","nothing"
"1439",NA,90,11,"2","purses",TRUE,1,1171,"lexical","nothing"
"1440",NA,90,12,"2","donuts",TRUE,1,1047,"lexical","nothing"
"1441",NA,90,13,"2","cats",FALSE,1,1000,"plural","nothing"
"1442",NA,90,14,"2","flowers",FALSE,1,953,"plural","nothing"
"1443",NA,90,15,"2","apples",TRUE,1,906,"plural","item"
"1444",NA,90,16,"2","forks",FALSE,1,718,"lexical","item"
"1445",NA,90,17,"2","cookies",TRUE,1,907,"plural","item"
"1446",NA,90,18,"2","dogs",FALSE,1,765,"plural","nothing"
"1447",NA,90,19,"2","scissors",TRUE,1,1203,"lexical","nothing"
"1448",NA,90,20,"2","balloons",TRUE,1,1000,"plural","item"
"1449",NA,90,21,"2","plants",FALSE,0,844,"plural","item"
"1450",NA,90,22,"2","rainboots",TRUE,1,1234,"lexical","nothing"
"1451",NA,90,23,"2","fish",FALSE,1,891,"lexical","item"
"1452",NA,90,24,"2","bows",FALSE,1,1578,"lexical","item"
"1453",NA,90,25,"2","mittens",FALSE,1,1391,"lexical","item"
"1454",NA,90,26,"2","presents",TRUE,1,1219,"plural","item"
"1455",NA,90,27,"2","cakes",FALSE,1,1079,"plural","nothing"
"1456",NA,90,28,"2","carrots",TRUE,1,1359,"plural","item"
"1457",NA,198,1,"2","apples",FALSE,1,1337,"lexical","item"
"1458",NA,198,2,"2","flowers",FALSE,1,1894,"plural","nothing"
"1459",NA,198,3,"2","donuts",TRUE,1,1173,"lexical","nothing"
"1460",NA,198,4,"2","shovels",TRUE,1,947,"lexical","nothing"
"1461",NA,198,5,"2","mittens",FALSE,1,1311,"lexical","item"
"1462",NA,198,6,"2","carrots",FALSE,1,1290,"plural","nothing"
"1463",NA,198,7,"2","plants",FALSE,1,946,"plural","nothing"
"1464",NA,198,8,"2","guitars",FALSE,1,1407,"lexical","item"
"1465",NA,198,9,"2","presents",FALSE,1,1565,"plural","nothing"
"1466",NA,198,10,"2","bananas",FALSE,1,1075,"plural","nothing"
"1467",NA,198,11,"2","fish",TRUE,1,1076,"plural","item"
"1468",NA,198,12,"2","forks",TRUE,1,1152,"plural","item"
"1469",NA,198,13,"2","scissors",TRUE,1,960,"plural","item"
"1470",NA,198,14,"2","purses",FALSE,1,1176,"lexical","item"
"1471",NA,198,15,"2","kites",TRUE,1,1029,"plural","item"
"1472",NA,198,16,"2","buckets",FALSE,1,990,"plural","nothing"
"1473",NA,198,17,"2","bows",TRUE,1,1610,"plural","item"
"1474",NA,198,18,"2","cookies",TRUE,1,901,"plural","item"
"1475",NA,198,19,"2","rainboots",FALSE,1,1054,"plural","nothing"
"1476",NA,198,20,"2","daisies",TRUE,1,1192,"plural","item"
"1477",NA,198,21,"2","umbrellas",TRUE,1,1185,"lexical","nothing"
"1478",NA,198,22,"2","phones",TRUE,1,1289,"lexical","nothing"
"1479",NA,198,23,"2","cats",FALSE,1,1082,"lexical","item"
"1480",NA,198,24,"2","cakes",TRUE,1,857,"lexical","nothing"
"1481",NA,198,25,"2","balloons",FALSE,1,882,"lexical","item"
"1482",NA,198,26,"2","dogs",TRUE,1,791,"lexical","nothing"
"1483",NA,198,27,"2","cars",TRUE,1,799,"lexical","nothing"
"1484",NA,198,28,"2","pencils",FALSE,1,877,"lexical","item"
"1485",NA,136,1,"3","phones",FALSE,1,2696,"plural","nothing"
"1486",NA,136,2,"3","scissors",TRUE,1,2058,"lexical","nothing"
"1487",NA,136,3,"3","umbrellas",FALSE,1,2200,"plural","nothing"
"1488",NA,136,4,"3","cookies",FALSE,1,2188,"plural","nothing"
"1489",NA,136,5,"3","bananas",FALSE,1,2739,"lexical","item"
"1490",NA,136,6,"3","presents",FALSE,1,3320,"lexical","item"
"1491",NA,136,7,"3","bows",TRUE,1,1827,"lexical","nothing"
"1492",NA,136,8,"3","flowers",TRUE,1,2337,"plural","item"
"1493",NA,136,9,"3","buckets",TRUE,1,1906,"lexical","nothing"
"1494",NA,136,10,"3","fish",FALSE,1,2207,"plural","nothing"
"1495",NA,136,11,"3","apples",TRUE,1,2179,"plural","item"
"1496",NA,136,12,"3","dogs",FALSE,1,2448,"lexical","item"
"1497",NA,136,13,"3","cars",FALSE,1,2255,"lexical","item"
"1498",NA,136,14,"3","kites",FALSE,1,1822,"plural","nothing"
"1499",NA,136,15,"3","cats",TRUE,1,1818,"plural","item"
"1500",NA,136,16,"3","balloons",TRUE,1,1852,"plural","item"
"1501",NA,136,17,"3","guitars",FALSE,1,1829,"plural","nothing"
"1502",NA,136,18,"3","purses",FALSE,1,3503,"lexical","item"
"1503",NA,136,19,"3","donuts",FALSE,1,4206,"plural","nothing"
"1504",NA,136,20,"3","daisies",TRUE,1,3066,"lexical","nothing"
"1505",NA,136,21,"3","plants",FALSE,1,4465,"lexical","item"
"1506",NA,136,22,"3","shovels",TRUE,1,3863,"plural","item"
"1507",NA,136,23,"3","rainboots",TRUE,1,2769,"plural","item"
"1508",NA,136,24,"3","cakes",TRUE,1,1701,"lexical","nothing"
"1509",NA,136,25,"3","carrots",TRUE,1,2057,"lexical","nothing"
"1510",NA,136,26,"3","pencils",TRUE,1,2024,"lexical","nothing"
"1511",NA,136,27,"3","forks",FALSE,1,2714,"lexical","item"
"1512",NA,136,28,"3","mittens",TRUE,1,4268,"plural","item"
"1513",NA,5,1,"3","purses",FALSE,1,2232,"lexical","item"
"1514",NA,5,2,"3","donuts",FALSE,1,1498,"plural","nothing"
"1515",NA,5,3,"3","phones",FALSE,1,1632,"lexical","item"
"1516",NA,5,4,"3","forks",TRUE,0,1543,"plural","nothing"
"1517",NA,5,5,"3","mittens",FALSE,1,1926,"plural","nothing"
"1518",NA,5,6,"3","dogs",FALSE,1,1501,"lexical","item"
"1519",NA,5,7,"3","guitars",TRUE,1,1219,"lexical","nothing"
"1520",NA,5,8,"3","cats",FALSE,1,1260,"plural","nothing"
"1521",NA,5,9,"3","rainboots",FALSE,1,1313,"lexical","item"
"1522",NA,5,10,"3","balloons",FALSE,1,1378,"plural","nothing"
"1523",NA,5,11,"3","daisies",TRUE,0,1358,"plural","nothing"
"1524",NA,5,12,"3","carrots",FALSE,1,1286,"lexical","item"
"1525",NA,5,13,"3","presents",TRUE,1,1474,"lexical","nothing"
"1526",NA,5,14,"3","cakes",FALSE,0,1068,"plural","item"
"1527",NA,5,15,"3","bananas",FALSE,1,1216,"lexical","item"
"1528",NA,5,16,"3","fish",TRUE,1,1300,"lexical","nothing"
"1529",NA,5,17,"3","buckets",TRUE,1,1332,"plural","item"
"1530",NA,5,18,"3","cars",FALSE,1,1115,"lexical","item"
"1531",NA,5,19,"3","bows",TRUE,1,2057,"lexical","nothing"
"1532",NA,5,20,"3","plants",TRUE,1,1850,"lexical","nothing"
"1533",NA,5,21,"3","cookies",TRUE,1,1336,"plural","item"
"1534",NA,5,22,"3","pencils",FALSE,1,1304,"plural","nothing"
"1535",NA,5,23,"3","flowers",TRUE,1,453,"lexical","nothing"
"1536",NA,5,24,"3","apples",TRUE,1,1345,"lexical","nothing"
"1537",NA,5,25,"3","umbrellas",TRUE,1,1225,"plural","item"
"1538",NA,5,26,"3","kites",TRUE,1,1010,"plural","item"
"1539",NA,5,27,"3","scissors",TRUE,1,857,"plural","item"
"1540",NA,5,28,"3","shovels",TRUE,1,1069,"plural","item"
"1541",NA,118,1,"0","phones",FALSE,1,1140,"plural","nothing"
"1542",NA,118,2,"0","balloons",TRUE,1,984,"plural","item"
"1543",NA,118,3,"0","plants",FALSE,1,1152,"lexical","item"
"1544",NA,118,4,"0","umbrellas",FALSE,1,1170,"lexical","item"
"1545",NA,118,5,"0","scissors",TRUE,0,985,"lexical","item"
"1546",NA,118,6,"0","bows",FALSE,1,1531,"lexical","item"
"1547",NA,118,7,"0","fish",TRUE,1,1001,"plural","item"
"1548",NA,118,8,"0","shovels",FALSE,1,882,"plural","nothing"
"1549",NA,118,9,"0","apples",FALSE,0,786,"lexical","nothing"
"1550",NA,118,10,"0","cookies",FALSE,1,1336,"plural","nothing"
"1551",NA,118,11,"0","forks",TRUE,1,1536,"lexical","nothing"
"1552",NA,118,12,"0","buckets",TRUE,1,1185,"lexical","nothing"
"1553",NA,118,13,"0","kites",FALSE,1,1091,"plural","nothing"
"1554",NA,118,14,"0","rainboots",FALSE,1,1809,"lexical","item"
"1555",NA,118,15,"0","carrots",FALSE,1,1498,"lexical","item"
"1556",NA,118,16,"0","cars",TRUE,1,1691,"lexical","nothing"
"1557",NA,118,17,"0","cats",FALSE,1,985,"plural","nothing"
"1558",NA,118,18,"0","cakes",FALSE,1,1322,"plural","nothing"
"1559",NA,118,19,"0","pencils",TRUE,1,912,"lexical","nothing"
"1560",NA,118,20,"0","flowers",TRUE,1,1346,"plural","item"
"1561",NA,118,21,"0","daisies",TRUE,1,1154,"lexical","nothing"
"1562",NA,118,22,"0","dogs",TRUE,1,1001,"plural","item"
"1563",NA,118,23,"0","purses",FALSE,1,1849,"lexical","item"
"1564",NA,118,24,"0","mittens",TRUE,1,866,"plural","item"
"1565",NA,118,25,"0","presents",FALSE,1,946,"plural","nothing"
"1566",NA,118,26,"0","bananas",TRUE,1,827,"plural","item"
"1567",NA,118,27,"0","donuts",TRUE,1,841,"plural","item"
"1568",NA,118,28,"0","guitars",TRUE,1,1114,"lexical","nothing"
"1569",NA,38,1,"0","dogs",TRUE,1,2120,"plural","item"
"1570",NA,38,2,"0","kites",FALSE,0,1978,"lexical","nothing"
"1571",NA,38,3,"0","cars",FALSE,1,2219,"lexical","item"
"1572",NA,38,4,"0","shovels",FALSE,1,1756,"plural","nothing"
"1573",NA,38,5,"0","buckets",FALSE,1,1596,"plural","nothing"
"1574",NA,38,6,"0","mittens",TRUE,1,1164,"lexical","nothing"
"1575",NA,38,7,"0","carrots",FALSE,1,2172,"lexical","item"
"1576",NA,38,8,"0","daisies",FALSE,1,1520,"lexical","item"
"1577",NA,38,9,"0","forks",FALSE,1,2256,"plural","nothing"
"1578",NA,38,10,"0","flowers",FALSE,1,1829,"lexical","item"
"1579",NA,38,11,"0","bows",FALSE,0,2119,"lexical","nothing"
"1580",NA,38,12,"0","balloons",TRUE,1,1836,"plural","item"
"1581",NA,38,13,"0","fish",TRUE,1,1672,"plural","item"
"1582",NA,38,14,"0","donuts",TRUE,1,1525,"plural","item"
"1583",NA,38,15,"0","cakes",TRUE,1,2221,"lexical","nothing"
"1584",NA,38,16,"0","bananas",TRUE,1,1576,"lexical","nothing"
"1585",NA,38,17,"0","apples",FALSE,1,1364,"lexical","item"
"1586",NA,38,18,"0","scissors",FALSE,1,1761,"plural","nothing"
"1587",NA,38,19,"0","cats",FALSE,1,1194,"lexical","item"
"1588",NA,38,20,"0","purses",FALSE,1,1528,"plural","nothing"
"1589",NA,38,21,"0","presents",FALSE,1,1329,"plural","nothing"
"1590",NA,38,22,"0","umbrellas",FALSE,1,1376,"plural","nothing"
"1591",NA,38,23,"0","pencils",TRUE,1,1328,"lexical","nothing"
"1592",NA,38,24,"0","phones",TRUE,1,1817,"plural","item"
"1593",NA,38,25,"0","cookies",FALSE,1,1709,"lexical","item"
"1594",NA,38,26,"0","guitars",TRUE,1,1988,"plural","item"
"1595",NA,38,27,"0","rainboots",TRUE,1,1619,"plural","item"
"1596",NA,38,28,"0","plants",TRUE,1,2252,"lexical","nothing"
"1597",NA,185,1,"0","umbrellas",FALSE,1,2269,"plural","nothing"
"1598",NA,185,2,"0","dogs",FALSE,1,2000,"lexical","item"
"1599",NA,185,3,"0","flowers",FALSE,1,2247,"lexical","item"
"1600",NA,185,4,"0","guitars",TRUE,1,1280,"lexical","nothing"
"1601",NA,185,5,"0","carrots",TRUE,1,2135,"lexical","nothing"
"1602",NA,185,6,"0","fish",TRUE,1,1615,"lexical","nothing"
"1603",NA,185,7,"0","cakes",FALSE,1,1864,"lexical","item"
"1604",NA,185,8,"0","pencils",FALSE,1,5144,"lexical","item"
"1605",NA,185,9,"0","mittens",TRUE,1,2784,"plural","item"
"1606",NA,185,10,"0","shovels",FALSE,1,2673,"plural","nothing"
"1607",NA,185,11,"0","balloons",FALSE,1,2119,"lexical","item"
"1608",NA,185,12,"0","forks",FALSE,1,3712,"plural","nothing"
"1609",NA,185,13,"0","kites",TRUE,1,1992,"plural","item"
"1610",NA,185,14,"0","plants",TRUE,1,5192,"lexical","nothing"
"1611",NA,185,15,"0","cars",TRUE,1,2352,"lexical","nothing"
"1612",NA,185,16,"0","purses",FALSE,1,1863,"plural","nothing"
"1613",NA,185,17,"0","cats",FALSE,1,1888,"lexical","item"
"1614",NA,185,18,"0","cookies",TRUE,1,1616,"plural","item"
"1615",NA,185,19,"0","rainboots",TRUE,1,2681,"plural","item"
"1616",NA,185,20,"0","donuts",FALSE,1,5528,"plural","nothing"
"1617",NA,185,21,"0","bananas",TRUE,1,1330,"plural","item"
"1618",NA,185,22,"0","apples",TRUE,1,1816,"lexical","nothing"
"1619",NA,185,23,"0","buckets",TRUE,1,1753,"lexical","nothing"
"1620",NA,185,24,"0","scissors",FALSE,1,1263,"plural","nothing"
"1621",NA,185,25,"0","daisies",TRUE,1,1233,"plural","item"
"1622",NA,185,26,"0","presents",FALSE,1,2506,"plural","nothing"
"1623",NA,185,27,"0","bows",TRUE,1,4008,"plural","item"
"1624",NA,185,28,"0","phones",FALSE,1,1909,"lexical","item"
"1625",NA,98,1,"1","plants",TRUE,1,2741,"lexical","nothing"
"1626",NA,98,2,"1","fish",FALSE,1,1195,"plural","nothing"
"1627",NA,98,3,"1","rainboots",FALSE,1,1146,"plural","nothing"
"1628",NA,98,4,"1","apples",FALSE,1,1317,"lexical","item"
"1629",NA,98,5,"1","umbrellas",TRUE,1,1066,"lexical","nothing"
"1630",NA,98,6,"1","daisies",FALSE,1,1031,"plural","nothing"
"1631",NA,98,7,"1","cats",FALSE,1,1243,"plural","nothing"
"1632",NA,98,8,"1","guitars",TRUE,1,1377,"plural","item"
"1633",NA,98,9,"1","pencils",FALSE,1,893,"plural","nothing"
"1634",NA,98,10,"1","scissors",TRUE,1,1154,"plural","item"
"1635",NA,98,11,"1","balloons",TRUE,1,1208,"lexical","nothing"
"1636",NA,98,12,"1","cars",TRUE,1,856,"plural","item"
"1637",NA,98,13,"1","donuts",FALSE,1,872,"plural","nothing"
"1638",NA,98,14,"1","cakes",FALSE,1,1183,"lexical","item"
"1639",NA,98,15,"1","kites",TRUE,1,1091,"plural","item"
"1640",NA,98,16,"1","mittens",FALSE,1,2548,"lexical","item"
"1641",NA,98,17,"1","presents",FALSE,1,1076,"lexical","item"
"1642",NA,98,18,"1","cookies",FALSE,1,1073,"plural","nothing"
"1643",NA,98,19,"1","phones",TRUE,1,1083,"plural","item"
"1644",NA,98,20,"1","bananas",TRUE,1,963,"lexical","nothing"
"1645",NA,98,21,"1","bows",TRUE,1,1140,"lexical","nothing"
"1646",NA,98,22,"1","buckets",TRUE,1,882,"plural","item"
"1647",NA,98,23,"1","forks",TRUE,0,1307,"lexical","item"
"1648",NA,98,24,"1","carrots",TRUE,1,1747,"lexical","nothing"
"1649",NA,98,25,"1","dogs",TRUE,1,975,"lexical","nothing"
"1650",NA,98,26,"1","purses",TRUE,1,1394,"plural","item"
"1651",NA,98,27,"1","shovels",FALSE,1,919,"lexical","item"
"1652",NA,98,28,"1","flowers",FALSE,1,1186,"lexical","item"
"1653",NA,122,1,"1","bananas",TRUE,1,1202,"plural","item"
"1654",NA,122,2,"1","mittens",FALSE,1,606,"plural","nothing"
"1655",NA,122,3,"1","bows",TRUE,1,1337,"lexical","nothing"
"1656",NA,122,4,"1","purses",TRUE,1,1149,"plural","item"
"1657",NA,122,5,"1","shovels",FALSE,1,1238,"lexical","item"
"1658",NA,122,6,"1","carrots",FALSE,1,1283,"plural","nothing"
"1659",NA,122,7,"1","flowers",TRUE,1,1096,"lexical","nothing"
"1660",NA,122,8,"1","apples",TRUE,1,933,"plural","item"
"1661",NA,122,9,"1","plants",FALSE,1,654,"plural","nothing"
"1662",NA,122,10,"1","cats",FALSE,1,994,"lexical","item"
"1663",NA,122,11,"1","buckets",FALSE,1,606,"plural","nothing"
"1664",NA,122,12,"1","donuts",FALSE,1,770,"lexical","item"
"1665",NA,122,13,"1","presents",TRUE,1,771,"lexical","nothing"
"1666",NA,122,14,"1","guitars",FALSE,1,891,"lexical","item"
"1667",NA,122,15,"1","dogs",TRUE,1,995,"lexical","nothing"
"1668",NA,122,16,"1","kites",TRUE,1,1111,"lexical","nothing"
"1669",NA,122,17,"1","balloons",TRUE,1,1106,"plural","item"
"1670",NA,122,18,"1","umbrellas",TRUE,1,1550,"plural","item"
"1671",NA,122,19,"1","phones",FALSE,1,859,"lexical","item"
"1672",NA,122,20,"1","rainboots",TRUE,1,1064,"plural","item"
"1673",NA,122,21,"1","fish",TRUE,1,1207,"plural","item"
"1674",NA,122,22,"1","cars",TRUE,1,1825,"lexical","nothing"
"1675",NA,122,23,"1","cakes",FALSE,1,3277,"lexical","item"
"1676",NA,122,24,"1","pencils",TRUE,1,910,"lexical","nothing"
"1677",NA,122,25,"1","forks",FALSE,1,1060,"plural","nothing"
"1678",NA,122,26,"1","cookies",FALSE,1,1318,"lexical","item"
"1679",NA,122,27,"1","scissors",FALSE,1,1205,"plural","nothing"
"1680",NA,122,28,"1","daisies",FALSE,1,1615,"plural","nothing"
"1681",NA,137,1,"1","bananas",FALSE,1,1727,"lexical","item"
"1682",NA,137,2,"1","flowers",FALSE,1,1312,"lexical","item"
"1683",NA,137,3,"1","carrots",FALSE,1,1175,"lexical","item"
"1684",NA,137,4,"1","daisies",TRUE,1,848,"plural","item"
"1685",NA,137,5,"1","cakes",TRUE,1,1179,"lexical","nothing"
"1686",NA,137,6,"1","cars",FALSE,1,1440,"lexical","item"
"1687",NA,137,7,"1","phones",TRUE,1,1149,"lexical","nothing"
"1688",NA,137,8,"1","kites",TRUE,1,1149,"plural","item"
