"","V1","subid","trial.num","context.condition","item","response","correct","rt","text.condition","image.condition"
"1",NA,37,1,"0","cats",TRUE,1,2741,"lexical","nothing"
"2",NA,37,2,"0","rainboots",TRUE,1,1542,"lexical","nothing"
"3",NA,37,3,"0","cars",TRUE,1,1551,"lexical","nothing"
"4",NA,37,4,"0","carrots",TRUE,1,1556,"lexical","nothing"
"5",NA,37,5,"0","presents",FALSE,1,976,"lexical","item"
"6",NA,37,6,"0","forks",FALSE,1,1163,"plural","nothing"
"7",NA,37,7,"0","shovels",TRUE,1,1183,"plural","item"
"8",NA,37,8,"0","scissors",TRUE,1,1232,"plural","item"
"9",NA,37,9,"0","apples",TRUE,1,1438,"plural","item"
"10",NA,37,10,"0","plants",TRUE,1,1105,"plural","item"
"11",NA,37,11,"0","dogs",FALSE,1,1148,"plural","nothing"
"12",NA,37,12,"0","phones",FALSE,0,1642,"lexical","nothing"
"13",NA,37,13,"0","pencils",FALSE,0,837,"lexical","nothing"
"14",NA,37,14,"0","cakes",TRUE,1,911,"plural","item"
"15",NA,37,15,"0","flowers",FALSE,1,1885,"plural","nothing"
"16",NA,37,16,"0","guitars",TRUE,1,861,"plural","item"
"17",NA,37,17,"0","fish",FALSE,1,1502,"plural","nothing"
"18",NA,37,18,"0","backpacks",TRUE,1,1231,"lexical","nothing"
"19",NA,37,19,"0","buckets",FALSE,1,1405,"plural","nothing"
"20",NA,37,20,"0","daisies",FALSE,1,1996,"lexical","item"
"21",NA,37,21,"0","bows",TRUE,0,1403,"plural","nothing"
"22",NA,37,22,"0","bananas",FALSE,1,1069,"lexical","item"
"23",NA,37,23,"0","kites",FALSE,1,1343,"lexical","item"
"24",NA,37,24,"0","mittens",FALSE,0,1102,"plural","item"
"25",NA,37,25,"0","purses",FALSE,1,1677,"lexical","item"
"26",NA,37,26,"0","cookies",FALSE,1,1745,"lexical","item"
"27",NA,37,27,"0","donuts",FALSE,1,1520,"lexical","item"
"28",NA,37,28,"0","umbrellas",FALSE,1,865,"plural","nothing"
"29",NA,2,1,"0","fish",FALSE,1,2180,"plural","nothing"
"30",NA,2,2,"0","phones",FALSE,1,1839,"lexical","item"
"31",NA,2,3,"0","cats",TRUE,1,2687,"lexical","nothing"
"32",NA,2,4,"0","backpacks",TRUE,1,1535,"plural","item"
"33",NA,2,5,"0","carrots",TRUE,1,2193,"lexical","nothing"
"34",NA,2,6,"0","guitars",FALSE,1,1709,"lexical","item"
"35",NA,2,7,"0","forks",TRUE,1,1982,"lexical","nothing"
"36",NA,2,8,"0","rainboots",FALSE,0,1982,"plural","item"
"37",NA,2,9,"0","umbrellas",FALSE,1,2286,"plural","nothing"
"38",NA,2,10,"0","plants",FALSE,1,1838,"lexical","item"
"39",NA,2,11,"0","cars",TRUE,1,1600,"plural","item"
"40",NA,2,12,"0","donuts",FALSE,1,1887,"lexical","item"
"41",NA,2,13,"0","flowers",FALSE,1,1982,"plural","nothing"
"42",NA,2,14,"0","shovels",TRUE,1,1520,"plural","item"
"43",NA,2,15,"0","apples",FALSE,1,1327,"plural","nothing"
"44",NA,2,16,"0","daisies",FALSE,1,1470,"lexical","item"
"45",NA,2,17,"0","dogs",TRUE,1,1628,"lexical","nothing"
"46",NA,2,18,"0","kites",FALSE,1,1950,"plural","nothing"
"47",NA,2,19,"0","cakes",FALSE,1,1967,"plural","nothing"
"48",NA,2,20,"0","purses",TRUE,1,1183,"plural","item"
"49",NA,2,21,"0","pencils",FALSE,0,1728,"lexical","nothing"
"50",NA,2,22,"0","bows",FALSE,1,1728,"plural","nothing"
"51",NA,2,23,"0","cookies",FALSE,1,1502,"lexical","item"
"52",NA,2,24,"0","scissors",TRUE,1,1456,"plural","item"
"53",NA,2,25,"0","buckets",FALSE,1,1231,"lexical","item"
"54",NA,2,26,"0","bananas",TRUE,1,2111,"lexical","nothing"
"55",NA,2,27,"0","presents",TRUE,1,1583,"plural","item"
"56",NA,2,28,"0","mittens",TRUE,1,1551,"lexical","nothing"
"57",NA,100,1,"0","bows",FALSE,1,1930,"lexical","item"
"58",NA,100,2,"0","donuts",FALSE,1,1650,"lexical","item"
"59",NA,100,3,"0","cakes",FALSE,1,1210,"plural","nothing"
"60",NA,100,4,"0","pencils",FALSE,0,870,"lexical","nothing"
"61",NA,100,5,"0","cats",FALSE,1,850,"plural","nothing"
"62",NA,100,6,"0","carrots",TRUE,1,1950,"plural","item"
"63",NA,100,7,"0","cookies",TRUE,1,1000,"plural","item"
"64",NA,100,8,"0","dogs",FALSE,0,1512,"lexical","nothing"
"65",NA,100,9,"0","umbrellas",TRUE,1,1277,"plural","item"
"66",NA,100,10,"0","forks",FALSE,1,2557,"lexical","item"
"67",NA,100,11,"0","presents",FALSE,1,2229,"plural","nothing"
"68",NA,100,12,"0","daisies",TRUE,1,1520,"plural","item"
"69",NA,100,13,"0","purses",TRUE,1,1430,"lexical","nothing"
"70",NA,100,14,"0","mittens",TRUE,1,1480,"lexical","nothing"
"71",NA,100,15,"0","flowers",FALSE,1,1670,"lexical","item"
"72",NA,100,16,"0","rainboots",TRUE,1,2040,"lexical","nothing"
"73",NA,100,17,"0","scissors",FALSE,1,1680,"plural","nothing"
"74",NA,100,18,"0","apples",FALSE,1,1710,"lexical","item"
"75",NA,100,19,"0","bananas",TRUE,1,920,"plural","item"
"76",NA,100,20,"0","plants",TRUE,1,1410,"lexical","nothing"
"77",NA,100,21,"0","phones",FALSE,1,1540,"lexical","item"
"78",NA,100,22,"0","guitars",FALSE,1,1600,"plural","nothing"
"79",NA,100,23,"0","buckets",TRUE,1,1700,"plural","item"
"80",NA,100,24,"0","shovels",FALSE,1,1460,"plural","nothing"
"81",NA,100,25,"0","cars",FALSE,1,1600,"plural","nothing"
"82",NA,100,26,"0","backpacks",FALSE,1,2290,"lexical","item"
"83",NA,100,27,"0","fish",TRUE,1,1611,"lexical","nothing"
"84",NA,100,28,"0","kites",TRUE,1,1427,"plural","item"
"85",NA,80,1,"1","plants",TRUE,1,3233,"plural","item"
"86",NA,80,2,"1","cakes",FALSE,1,2085,"lexical","item"
"87",NA,80,3,"1","umbrellas",FALSE,1,2203,"lexical","item"
"88",NA,80,4,"1","daisies",FALSE,1,2154,"lexical","item"
"89",NA,80,5,"1","mittens",FALSE,1,2730,"lexical","item"
"90",NA,80,6,"1","cats",TRUE,1,1628,"plural","item"
"91",NA,80,7,"1","bows",FALSE,0,2630,"plural","item"
"92",NA,80,8,"1","dogs",FALSE,1,1458,"lexical","item"
"93",NA,80,9,"1","backpacks",FALSE,1,2867,"plural","nothing"
"94",NA,80,10,"1","fish",FALSE,1,1512,"lexical","item"
"95",NA,80,11,"1","donuts",TRUE,1,1682,"lexical","nothing"
"96",NA,80,12,"1","rainboots",TRUE,1,2109,"plural","item"
"97",NA,80,13,"1","presents",TRUE,1,1884,"plural","item"
"98",NA,80,14,"1","forks",FALSE,1,1555,"plural","nothing"
"99",NA,80,15,"1","pencils",FALSE,1,1627,"plural","nothing"
"100",NA,80,16,"1","flowers",FALSE,1,1802,"plural","nothing"
"101",NA,80,17,"1","guitars",FALSE,1,1442,"plural","nothing"
"102",NA,80,18,"1","bananas",TRUE,1,2120,"lexical","nothing"
"103",NA,80,19,"1","apples",FALSE,0,1311,"lexical","nothing"
"104",NA,80,20,"1","phones",FALSE,0,970,"lexical","nothing"
"105",NA,80,21,"1","buckets",TRUE,1,1435,"plural","item"
"106",NA,80,22,"1","shovels",TRUE,1,1783,"lexical","nothing"
"107",NA,80,23,"1","cars",FALSE,1,1582,"plural","nothing"
"108",NA,80,24,"1","kites",TRUE,1,1138,"plural","item"
"109",NA,80,25,"1","cookies",TRUE,1,1560,"lexical","nothing"
"110",NA,80,26,"1","purses",TRUE,1,1540,"lexical","nothing"
"111",NA,80,27,"1","scissors",FALSE,1,1911,"lexical","item"
"112",NA,80,28,"1","carrots",TRUE,0,2908,"plural","nothing"
"113",NA,49,1,"1","bananas",FALSE,1,1933,"plural","nothing"
"114",NA,49,2,"1","purses",TRUE,1,1113,"lexical","nothing"
"115",NA,49,3,"1","presents",TRUE,1,1222,"lexical","nothing"
"116",NA,49,4,"1","scissors",TRUE,1,1123,"plural","item"
"117",NA,49,5,"1","umbrellas",FALSE,0,891,"lexical","nothing"
"118",NA,49,6,"1","donuts",FALSE,1,1539,"lexical","item"
"119",NA,49,7,"1","daisies",TRUE,1,1350,"plural","item"
"120",NA,49,8,"1","forks",FALSE,1,1113,"plural","nothing"
"121",NA,49,9,"1","backpacks",TRUE,1,1258,"lexical","nothing"
"122",NA,49,10,"1","cookies",FALSE,1,1214,"plural","nothing"
"123",NA,49,11,"1","cakes",FALSE,1,1566,"lexical","item"
"124",NA,49,12,"1","flowers",FALSE,1,1576,"lexical","item"
"125",NA,49,13,"1","buckets",TRUE,1,1233,"plural","item"
"126",NA,49,14,"1","mittens",TRUE,1,1362,"lexical","nothing"
"127",NA,49,15,"1","carrots",FALSE,1,1470,"plural","nothing"
"128",NA,49,16,"1","bows",TRUE,1,1838,"plural","item"
"129",NA,49,17,"1","guitars",FALSE,1,1406,"plural","nothing"
"130",NA,49,18,"1","cars",FALSE,1,1434,"lexical","item"
"131",NA,49,19,"1","cats",FALSE,1,1391,"plural","nothing"
"132",NA,49,20,"1","kites",TRUE,1,1337,"plural","item"
"133",NA,49,21,"1","pencils",FALSE,1,1291,"plural","nothing"
"134",NA,49,22,"1","dogs",FALSE,1,1419,"lexical","item"
"135",NA,49,23,"1","fish",TRUE,1,1507,"lexical","nothing"
"136",NA,49,24,"1","shovels",TRUE,1,1311,"lexical","nothing"
"137",NA,49,25,"1","plants",TRUE,1,1104,"plural","item"
"138",NA,49,26,"1","rainboots",FALSE,1,1217,"lexical","item"
"139",NA,49,27,"1","apples",FALSE,1,1174,"lexical","item"
"140",NA,49,28,"1","phones",TRUE,1,1286,"plural","item"
"141",NA,84,1,"1","flowers",FALSE,1,1589,"plural","nothing"
"142",NA,84,2,"1","purses",FALSE,1,1262,"plural","nothing"
"143",NA,84,3,"1","cats",FALSE,1,1462,"plural","nothing"
"144",NA,84,4,"1","dogs",TRUE,1,1480,"lexical","nothing"
"145",NA,84,5,"1","pencils",TRUE,1,1660,"lexical","nothing"
"146",NA,84,6,"1","rainboots",FALSE,1,1289,"plural","nothing"
"147",NA,84,7,"1","kites",FALSE,1,994,"lexical","item"
"148",NA,84,8,"1","buckets",TRUE,1,1125,"lexical","nothing"
"149",NA,84,9,"1","apples",FALSE,1,1145,"lexical","item"
"150",NA,84,10,"1","cars",FALSE,1,1426,"lexical","item"
"151",NA,84,11,"1","guitars",TRUE,1,977,"lexical","nothing"
"152",NA,84,12,"1","scissors",FALSE,1,1045,"lexical","item"
"153",NA,84,13,"1","umbrellas",TRUE,1,1168,"plural","item"
"154",NA,84,14,"1","donuts",TRUE,1,964,"lexical","nothing"
"155",NA,84,15,"1","phones",FALSE,1,991,"plural","nothing"
"156",NA,84,16,"1","fish",FALSE,1,939,"plural","nothing"
"157",NA,84,17,"1","shovels",TRUE,1,1358,"lexical","nothing"
"158",NA,84,18,"1","mittens",TRUE,1,1009,"plural","item"
"159",NA,84,19,"1","presents",TRUE,1,914,"plural","item"
"160",NA,84,20,"1","backpacks",TRUE,1,969,"plural","item"
"161",NA,84,21,"1","bows",TRUE,0,1278,"lexical","item"
"162",NA,84,22,"1","plants",FALSE,1,1082,"lexical","item"
"163",NA,84,23,"1","bananas",TRUE,1,1001,"plural","item"
"164",NA,84,24,"1","carrots",TRUE,1,1325,"lexical","nothing"
"165",NA,84,25,"1","daisies",FALSE,1,1106,"plural","nothing"
"166",NA,84,26,"1","cookies",TRUE,1,1194,"plural","item"
"167",NA,84,27,"1","forks",FALSE,1,1322,"lexical","item"
"168",NA,84,28,"1","cakes",TRUE,1,991,"plural","item"
"169",NA,48,1,"0","fish",FALSE,1,1897,"plural","nothing"
"170",NA,48,2,"0","dogs",TRUE,1,1301,"plural","item"
"171",NA,48,3,"0","plants",TRUE,1,2577,"lexical","nothing"
"172",NA,48,4,"0","guitars",TRUE,1,1774,"plural","item"
"173",NA,48,5,"0","bananas",FALSE,1,1878,"lexical","item"
"174",NA,48,6,"0","buckets",TRUE,1,1777,"lexical","nothing"
"175",NA,48,7,"0","flowers",TRUE,1,1673,"lexical","nothing"
"176",NA,48,8,"0","daisies",FALSE,1,2031,"lexical","item"
"177",NA,48,9,"0","cakes",FALSE,1,2558,"plural","nothing"
"178",NA,48,10,"0","backpacks",FALSE,1,2922,"plural","nothing"
"179",NA,48,11,"0","forks",FALSE,1,1632,"lexical","item"
"180",NA,48,12,"0","apples",TRUE,1,1668,"plural","item"
"181",NA,48,13,"0","carrots",TRUE,1,1978,"lexical","nothing"
"182",NA,48,14,"0","rainboots",TRUE,1,2583,"lexical","nothing"
"183",NA,48,15,"0","purses",TRUE,1,1620,"lexical","nothing"
"184",NA,48,16,"0","cars",FALSE,1,1879,"lexical","item"
"185",NA,48,17,"0","phones",FALSE,1,2258,"plural","nothing"
"186",NA,48,18,"0","umbrellas",FALSE,1,1318,"plural","nothing"
"187",NA,48,19,"0","bows",TRUE,1,1826,"plural","item"
"188",NA,48,20,"0","pencils",FALSE,1,1500,"lexical","item"
"189",NA,48,21,"0","kites",TRUE,1,1389,"plural","item"
"190",NA,48,22,"0","donuts",FALSE,1,1292,"plural","nothing"
"191",NA,48,23,"0","cats",TRUE,1,1304,"plural","item"
"192",NA,48,24,"0","presents",FALSE,1,1508,"lexical","item"
"193",NA,48,25,"0","shovels",TRUE,1,1269,"plural","item"
"194",NA,48,26,"0","mittens",TRUE,1,2480,"lexical","nothing"
"195",NA,48,27,"0","scissors",FALSE,1,1498,"lexical","item"
"196",NA,48,28,"0","cookies",FALSE,1,1275,"plural","nothing"
"197",NA,23,1,"1","phones",FALSE,1,1809,"plural","nothing"
"198",NA,23,2,"1","flowers",TRUE,1,1591,"plural","item"
"199",NA,23,3,"1","pencils",TRUE,1,2533,"plural","item"
"200",NA,23,4,"1","forks",FALSE,1,1078,"lexical","item"
"201",NA,23,5,"1","scissors",TRUE,1,1219,"plural","item"
"202",NA,23,6,"1","rainboots",FALSE,1,2133,"lexical","item"
"203",NA,23,7,"1","donuts",TRUE,1,1289,"lexical","nothing"
"204",NA,23,8,"1","guitars",TRUE,1,775,"plural","item"
"205",NA,23,9,"1","cookies",FALSE,1,1137,"lexical","item"
"206",NA,23,10,"1","plants",TRUE,0,1106,"plural","nothing"
"207",NA,23,11,"1","dogs",TRUE,1,1414,"lexical","nothing"
"208",NA,23,12,"1","cars",TRUE,1,1257,"plural","item"
"209",NA,23,13,"1","apples",FALSE,1,1282,"lexical","item"
"210",NA,23,14,"1","carrots",FALSE,1,1597,"plural","nothing"
"211",NA,23,15,"1","purses",TRUE,1,1675,"lexical","nothing"
"212",NA,23,16,"1","daisies",FALSE,1,1918,"lexical","item"
"213",NA,23,17,"1","cats",FALSE,1,1408,"lexical","item"
"214",NA,23,18,"1","umbrellas",FALSE,1,1580,"plural","nothing"
"215",NA,23,19,"1","backpacks",TRUE,1,1571,"lexical","nothing"
"216",NA,23,20,"1","presents",FALSE,1,1249,"plural","nothing"
"217",NA,23,21,"1","bows",TRUE,0,3906,"plural","nothing"
"218",NA,23,22,"1","buckets",TRUE,1,1353,"plural","item"
"219",NA,23,23,"1","kites",TRUE,1,1424,"lexical","nothing"
"220",NA,23,24,"1","bananas",TRUE,1,1037,"plural","item"
"221",NA,23,25,"1","shovels",FALSE,1,2847,"lexical","item"
"222",NA,23,26,"1","mittens",FALSE,1,1767,"plural","nothing"
"223",NA,23,27,"1","fish",TRUE,1,1382,"lexical","nothing"
"224",NA,23,28,"1","cakes",TRUE,1,1162,"lexical","nothing"
"225",NA,27,1,"0","cakes",FALSE,1,1887,"lexical","item"
"226",NA,27,2,"0","purses",TRUE,1,3682,"plural","item"
"227",NA,27,3,"0","kites",FALSE,1,2496,"lexical","item"
"228",NA,27,4,"0","apples",TRUE,0,4212,"plural","nothing"
"229",NA,27,5,"0","buckets",FALSE,1,3463,"lexical","item"
"230",NA,27,6,"0","dogs",TRUE,1,2434,"plural","item"
"231",NA,27,7,"0","daisies",FALSE,1,1576,"plural","nothing"
"232",NA,27,8,"0","shovels",FALSE,1,2418,"lexical","item"
"233",NA,27,9,"0","scissors",TRUE,1,2016,"lexical","nothing"
"234",NA,27,10,"0","umbrellas",TRUE,1,2075,"lexical","nothing"
"235",NA,27,11,"0","bows",FALSE,1,3774,"plural","nothing"
"236",NA,27,12,"0","cookies",TRUE,1,2137,"plural","item"
"237",NA,27,13,"0","bananas",TRUE,1,1950,"lexical","nothing"
"238",NA,27,14,"0","guitars",FALSE,1,2044,"plural","nothing"
"239",NA,27,15,"0","cars",TRUE,1,1794,"lexical","nothing"
"240",NA,27,16,"0","backpacks",FALSE,1,1919,"lexical","item"
"241",NA,27,17,"0","flowers",FALSE,1,3135,"plural","nothing"
"242",NA,27,18,"0","presents",TRUE,1,2355,"plural","item"
"243",NA,27,19,"0","pencils",TRUE,1,4352,"lexical","nothing"
"244",NA,27,20,"0","phones",FALSE,1,1466,"lexical","item"
"245",NA,27,21,"0","fish",FALSE,1,2371,"plural","nothing"
"246",NA,27,22,"0","donuts",FALSE,1,1295,"lexical","item"
"247",NA,27,23,"0","carrots",FALSE,1,1872,"plural","nothing"
"248",NA,27,24,"0","cats",TRUE,1,1482,"plural","item"
"249",NA,27,25,"0","plants",TRUE,1,1700,"lexical","nothing"
"250",NA,27,26,"0","forks",TRUE,1,1669,"lexical","nothing"
"251",NA,27,27,"0","mittens",TRUE,1,1794,"plural","item"
"252",NA,27,28,"0","rainboots",TRUE,1,3136,"plural","item"
"253",NA,9,1,"1","pencils",FALSE,0,1501,"lexical","nothing"
"254",NA,9,2,"1","dogs",TRUE,1,2048,"plural","item"
"255",NA,9,3,"1","flowers",TRUE,0,1610,"lexical","item"
"256",NA,9,4,"1","forks",TRUE,0,1813,"plural","nothing"
"257",NA,9,5,"1","cookies",FALSE,1,1547,"plural","nothing"
"258",NA,9,6,"1","cats",TRUE,1,1829,"lexical","nothing"
"259",NA,9,7,"1","daisies",TRUE,1,1469,"lexical","nothing"
"260",NA,9,8,"1","apples",TRUE,1,1172,"plural","item"
"261",NA,9,9,"1","mittens",TRUE,1,1251,"plural","item"
"262",NA,9,10,"1","plants",FALSE,1,1579,"plural","nothing"
"263",NA,9,11,"1","shovels",FALSE,1,1438,"lexical","item"
"264",NA,9,12,"1","donuts",TRUE,1,1031,"lexical","nothing"
"265",NA,9,13,"1","bananas",FALSE,1,1297,"lexical","item"
"266",NA,9,14,"1","rainboots",FALSE,1,1891,"plural","nothing"
"267",NA,9,15,"1","kites",TRUE,1,1219,"plural","item"
"268",NA,9,16,"1","bows",TRUE,1,1890,"plural","item"
"269",NA,9,17,"1","purses",FALSE,1,1360,"plural","nothing"
"270",NA,9,18,"1","umbrellas",TRUE,1,1626,"lexical","nothing"
"271",NA,9,19,"1","scissors",FALSE,1,1594,"lexical","item"
"272",NA,9,20,"1","fish",TRUE,0,1016,"lexical","item"
"273",NA,9,21,"1","carrots",TRUE,1,1719,"lexical","nothing"
"274",NA,9,22,"1","phones",FALSE,1,1453,"plural","nothing"
"275",NA,9,23,"1","backpacks",FALSE,1,1563,"lexical","item"
"276",NA,9,24,"1","presents",TRUE,1,1266,"lexical","nothing"
"277",NA,9,25,"1","cakes",TRUE,1,1516,"plural","item"
"278",NA,9,26,"1","cars",TRUE,1,1110,"plural","item"
"279",NA,9,27,"1","buckets",FALSE,1,1047,"plural","nothing"
"280",NA,9,28,"1","guitars",FALSE,1,1235,"lexical","item"
"281",NA,59,1,"0","backpacks",TRUE,1,2729,"plural","item"
"282",NA,59,2,"0","cakes",FALSE,1,1971,"lexical","item"
"283",NA,59,3,"0","phones",TRUE,1,2011,"plural","item"
"284",NA,59,4,"0","apples",FALSE,1,1778,"lexical","item"
"285",NA,59,5,"0","shovels",TRUE,1,2004,"plural","item"
"286",NA,59,6,"0","bananas",FALSE,1,2850,"plural","nothing"
"287",NA,59,7,"0","cars",FALSE,1,2154,"plural","nothing"
"288",NA,59,8,"0","cats",TRUE,1,2217,"lexical","nothing"
"289",NA,59,9,"0","kites",FALSE,1,2238,"plural","nothing"
"290",NA,59,10,"0","donuts",FALSE,1,2169,"lexical","item"
"291",NA,59,11,"0","guitars",TRUE,1,2127,"lexical","nothing"
"292",NA,59,12,"0","plants",TRUE,1,1916,"lexical","nothing"
"293",NA,59,13,"0","carrots",FALSE,1,4107,"plural","nothing"
"294",NA,59,14,"0","dogs",TRUE,1,2215,"plural","item"
"295",NA,59,15,"0","purses",TRUE,1,2185,"plural","item"
"296",NA,59,16,"0","bows",FALSE,1,2283,"lexical","item"
"297",NA,59,17,"0","mittens",TRUE,1,2606,"lexical","nothing"
"298",NA,59,18,"0","rainboots",FALSE,1,2650,"lexical","item"
"299",NA,59,19,"0","pencils",FALSE,1,2608,"plural","nothing"
"300",NA,59,20,"0","flowers",TRUE,1,2274,"plural","item"
"301",NA,59,21,"0","presents",FALSE,1,1855,"lexical","item"
"302",NA,59,22,"0","scissors",FALSE,1,2348,"plural","nothing"
"303",NA,59,23,"0","fish",TRUE,1,6687,"lexical","nothing"
"304",NA,59,24,"0","forks",FALSE,1,1979,"lexical","item"
"305",NA,59,25,"0","umbrellas",TRUE,1,1925,"plural","item"
"306",NA,59,26,"0","buckets",TRUE,1,2198,"lexical","nothing"
"307",NA,59,27,"0","cookies",FALSE,1,2332,"plural","nothing"
"308",NA,59,28,"0","daisies",TRUE,1,2746,"lexical","nothing"
"309",NA,74,1,"1","mittens",FALSE,1,1390,"lexical","item"
"310",NA,74,2,"1","cats",FALSE,1,945,"lexical","item"
"311",NA,74,3,"1","backpacks",FALSE,1,1421,"plural","nothing"
"312",NA,74,4,"1","phones",FALSE,1,947,"plural","nothing"
"313",NA,74,5,"1","cookies",TRUE,1,935,"lexical","nothing"
"314",NA,74,6,"1","fish",FALSE,1,1075,"lexical","item"
"315",NA,74,7,"1","cars",TRUE,1,996,"lexical","nothing"
"316",NA,74,8,"1","presents",TRUE,1,921,"plural","item"
"317",NA,74,9,"1","purses",FALSE,1,1043,"plural","nothing"
"318",NA,74,10,"1","forks",FALSE,1,888,"plural","nothing"
"319",NA,74,11,"1","plants",TRUE,1,714,"plural","item"
"320",NA,74,12,"1","pencils",TRUE,1,1148,"lexical","nothing"
"321",NA,74,13,"1","donuts",FALSE,1,1249,"plural","nothing"
"322",NA,74,14,"1","apples",TRUE,1,1254,"lexical","nothing"
"323",NA,74,15,"1","carrots",TRUE,1,980,"lexical","nothing"
"324",NA,74,16,"1","cakes",FALSE,1,895,"lexical","item"
"325",NA,74,17,"1","kites",TRUE,1,885,"plural","item"
"326",NA,74,18,"1","shovels",TRUE,1,667,"plural","item"
"327",NA,74,19,"1","flowers",TRUE,1,950,"lexical","nothing"
"328",NA,74,20,"1","guitars",TRUE,1,844,"plural","item"
"329",NA,74,21,"1","buckets",TRUE,1,591,"plural","item"
"330",NA,74,22,"1","bows",FALSE,1,1228,"plural","nothing"
"331",NA,74,23,"1","scissors",FALSE,1,1435,"lexical","item"
"332",NA,74,24,"1","daisies",FALSE,1,1114,"plural","nothing"
"333",NA,74,25,"1","bananas",TRUE,1,953,"plural","item"
"334",NA,74,26,"1","rainboots",FALSE,1,1566,"lexical","item"
"335",NA,74,27,"1","umbrellas",TRUE,1,1056,"lexical","nothing"
"336",NA,74,28,"1","dogs",FALSE,1,861,"lexical","item"
"337",NA,45,1,"1","backpacks",FALSE,1,2037,"lexical","item"
"338",NA,45,2,"1","shovels",TRUE,1,1064,"lexical","nothing"
"339",NA,45,3,"1","carrots",TRUE,0,1207,"plural","nothing"
"340",NA,45,4,"1","flowers",FALSE,1,1560,"lexical","item"
"341",NA,45,5,"1","cakes",TRUE,1,1861,"plural","item"
"342",NA,45,6,"1","rainboots",TRUE,1,3121,"plural","item"
"343",NA,45,7,"1","phones",FALSE,1,1418,"plural","nothing"
"344",NA,45,8,"1","apples",TRUE,1,1095,"plural","item"
"345",NA,45,9,"1","kites",TRUE,1,1239,"plural","item"
"346",NA,45,10,"1","mittens",FALSE,1,1505,"plural","nothing"
"347",NA,45,11,"1","presents",TRUE,1,1075,"plural","item"
"348",NA,45,12,"1","bananas",FALSE,1,1230,"lexical","item"
"349",NA,45,13,"1","donuts",FALSE,1,1703,"plural","nothing"
"350",NA,45,14,"1","cookies",FALSE,1,1726,"lexical","item"
"351",NA,45,15,"1","dogs",FALSE,1,1319,"lexical","item"
"352",NA,45,16,"1","bows",FALSE,1,1317,"lexical","item"
"353",NA,45,17,"1","plants",TRUE,1,5154,"lexical","nothing"
"354",NA,45,18,"1","fish",TRUE,1,1469,"lexical","nothing"
"355",NA,45,19,"1","cars",TRUE,1,802,"lexical","nothing"
"356",NA,45,20,"1","buckets",FALSE,1,947,"lexical","item"
"357",NA,45,21,"1","pencils",TRUE,1,1059,"lexical","nothing"
"358",NA,45,22,"1","forks",FALSE,1,1536,"plural","nothing"
"359",NA,45,23,"1","umbrellas",TRUE,1,1932,"lexical","nothing"
"360",NA,45,24,"1","purses",TRUE,1,2071,"plural","item"
"361",NA,45,25,"1","daisies",TRUE,1,1102,"lexical","nothing"
"362",NA,45,26,"1","cats",TRUE,1,953,"plural","item"
"363",NA,45,27,"1","scissors",FALSE,1,2312,"plural","nothing"
"364",NA,45,28,"1","guitars",FALSE,1,3439,"plural","nothing"
"365",NA,1,1,"0","cats",FALSE,1,2312,"lexical","item"
"366",NA,1,2,"0","backpacks",TRUE,1,1231,"plural","item"
"367",NA,1,3,"0","cars",TRUE,1,906,"plural","item"
"368",NA,1,4,"0","forks",TRUE,1,1305,"plural","item"
"369",NA,1,5,"0","purses",FALSE,1,2584,"lexical","item"
"370",NA,1,6,"0","apples",FALSE,1,2446,"lexical","item"
"371",NA,1,7,"0","presents",FALSE,1,1633,"plural","nothing"
"372",NA,1,8,"0","shovels",FALSE,1,1843,"lexical","item"
"373",NA,1,9,"0","plants",FALSE,0,1282,"lexical","nothing"
"374",NA,1,10,"0","fish",FALSE,1,1912,"plural","nothing"
"375",NA,1,11,"0","mittens",TRUE,1,2569,"lexical","nothing"
"376",NA,1,12,"0","donuts",FALSE,1,1425,"lexical","item"
"377",NA,1,13,"0","bananas",TRUE,1,1084,"plural","item"
"378",NA,1,14,"0","scissors",TRUE,1,952,"plural","item"
"379",NA,1,15,"0","umbrellas",TRUE,1,1497,"lexical","nothing"
"380",NA,1,16,"0","carrots",TRUE,1,1462,"lexical","nothing"
"381",NA,1,17,"0","kites",TRUE,1,1130,"lexical","nothing"
"382",NA,1,18,"0","phones",FALSE,1,2552,"lexical","item"
"383",NA,1,19,"0","daisies",TRUE,0,1153,"plural","nothing"
"384",NA,1,20,"0","rainboots",TRUE,1,1498,"lexical","nothing"
"385",NA,1,21,"0","cookies",TRUE,1,1407,"plural","item"
"386",NA,1,22,"0","cakes",FALSE,1,1279,"plural","nothing"
"387",NA,1,23,"0","bows",TRUE,1,1936,"lexical","nothing"
"388",NA,1,24,"0","guitars",TRUE,1,978,"plural","item"
"389",NA,1,25,"0","dogs",TRUE,0,1273,"plural","nothing"
"390",NA,1,26,"0","flowers",FALSE,1,1438,"plural","nothing"
"391",NA,1,27,"0","pencils",FALSE,1,1329,"lexical","item"
"392",NA,1,28,"0","buckets",FALSE,1,1225,"plural","nothing"
"393",NA,7,1,"1","dogs",FALSE,1,2777,"plural","nothing"
"394",NA,7,2,"1","shovels",TRUE,1,1408,"lexical","nothing"
"395",NA,7,3,"1","cats",TRUE,1,1586,"plural","item"
"396",NA,7,4,"1","mittens",FALSE,1,1398,"lexical","item"
"397",NA,7,5,"1","fish",FALSE,1,1834,"plural","nothing"
"398",NA,7,6,"1","carrots",TRUE,1,3013,"lexical","nothing"
"399",NA,7,7,"1","scissors",FALSE,1,2908,"plural","nothing"
"400",NA,7,8,"1","guitars",TRUE,1,2524,"lexical","nothing"
"401",NA,7,9,"1","cars",FALSE,1,1313,"lexical","item"
"402",NA,7,10,"1","forks",TRUE,1,1121,"lexical","nothing"
"403",NA,7,11,"1","rainboots",TRUE,1,1418,"lexical","nothing"
"404",NA,7,12,"1","daisies",FALSE,1,1723,"plural","nothing"
"405",NA,7,13,"1","flowers",FALSE,1,1425,"lexical","item"
"406",NA,7,14,"1","presents",TRUE,1,3091,"lexical","nothing"
"407",NA,7,15,"1","cookies",FALSE,1,1066,"lexical","item"
"408",NA,7,16,"1","phones",FALSE,1,1904,"plural","nothing"
"409",NA,7,17,"1","backpacks",FALSE,1,1969,"lexical","item"
"410",NA,7,18,"1","cakes",TRUE,1,2006,"lexical","nothing"
"411",NA,7,19,"1","donuts",TRUE,1,1375,"plural","item"
"412",NA,7,20,"1","buckets",FALSE,1,1531,"plural","nothing"
"413",NA,7,21,"1","kites",FALSE,0,2063,"plural","item"
"414",NA,7,22,"1","bows",TRUE,0,3620,"lexical","item"
"415",NA,7,23,"1","bananas",TRUE,1,1700,"plural","item"
"416",NA,7,24,"1","pencils",FALSE,1,1082,"lexical","item"
"417",NA,7,25,"1","purses",TRUE,1,1740,"plural","item"
"418",NA,7,26,"1","umbrellas",FALSE,1,1526,"plural","nothing"
"419",NA,7,27,"1","plants",TRUE,1,2498,"plural","item"
"420",NA,7,28,"1","apples",TRUE,1,1183,"plural","item"
"421",NA,10,1,"0","scissors",TRUE,1,1876,"lexical","nothing"
"422",NA,10,2,"0","daisies",TRUE,1,1357,"lexical","nothing"
"423",NA,10,3,"0","buckets",TRUE,1,1074,"lexical","nothing"
"424",NA,10,4,"0","cars",FALSE,1,1075,"lexical","item"
"425",NA,10,5,"0","backpacks",TRUE,1,1842,"plural","item"
"426",NA,10,6,"0","phones",TRUE,1,1245,"plural","item"
"427",NA,10,7,"0","shovels",TRUE,1,1324,"lexical","nothing"
"428",NA,10,8,"0","cookies",TRUE,1,1840,"lexical","nothing"
"429",NA,10,9,"0","plants",FALSE,1,1520,"lexical","item"
"430",NA,10,10,"0","purses",FALSE,1,1859,"plural","nothing"
"431",NA,10,11,"0","pencils",FALSE,1,1380,"lexical","item"
"432",NA,10,12,"0","presents",FALSE,1,1299,"plural","nothing"
"433",NA,10,13,"0","carrots",TRUE,0,1711,"lexical","item"
"434",NA,10,14,"0","cats",FALSE,1,1771,"lexical","item"
"435",NA,10,15,"0","forks",TRUE,1,1598,"lexical","nothing"
"436",NA,10,16,"0","fish",TRUE,1,1872,"plural","item"
"437",NA,10,17,"0","guitars",TRUE,1,1240,"plural","item"
"438",NA,10,18,"0","apples",FALSE,1,1325,"plural","nothing"
"439",NA,10,19,"0","cakes",TRUE,1,1568,"lexical","nothing"
"440",NA,10,20,"0","flowers",FALSE,1,1917,"plural","nothing"
"441",NA,10,21,"0","bananas",TRUE,1,1102,"plural","item"
"442",NA,10,22,"0","bows",TRUE,1,1397,"plural","item"
"443",NA,10,23,"0","umbrellas",FALSE,1,1178,"lexical","item"
"444",NA,10,24,"0","kites",FALSE,1,1380,"lexical","item"
"445",NA,10,25,"0","rainboots",FALSE,1,2891,"plural","nothing"
"446",NA,10,26,"0","donuts",FALSE,1,1618,"plural","nothing"
"447",NA,10,27,"0","mittens",FALSE,1,1495,"plural","nothing"
"448",NA,10,28,"0","dogs",TRUE,1,1204,"plural","item"
"449",NA,98,1,"1","shovels",TRUE,1,1442,"lexical","nothing"
"450",NA,98,2,"1","purses",TRUE,1,1711,"plural","item"
"451",NA,98,3,"1","fish",TRUE,1,1289,"lexical","nothing"
"452",NA,98,4,"1","cars",FALSE,1,1470,"plural","nothing"
"453",NA,98,5,"1","rainboots",FALSE,1,2707,"lexical","item"
"454",NA,98,6,"1","pencils",TRUE,1,1652,"lexical","nothing"
"455",NA,98,7,"1","donuts",FALSE,1,1196,"plural","nothing"
"456",NA,98,8,"1","apples",FALSE,1,1199,"plural","nothing"
"457",NA,98,9,"1","scissors",FALSE,1,2011,"lexical","item"
"458",NA,98,10,"1","bananas",FALSE,1,1536,"lexical","item"
"459",NA,98,11,"1","carrots",TRUE,1,1036,"plural","item"
"460",NA,98,12,"1","kites",FALSE,1,1544,"plural","nothing"
"461",NA,98,13,"1","cakes",TRUE,1,1316,"lexical","nothing"
"462",NA,98,14,"1","umbrellas",TRUE,1,1317,"plural","item"
"463",NA,98,15,"1","flowers",TRUE,1,1155,"lexical","nothing"
"464",NA,98,16,"1","bows",TRUE,1,1327,"plural","item"
"465",NA,98,17,"1","cats",TRUE,1,881,"lexical","nothing"
"466",NA,98,18,"1","backpacks",FALSE,1,1196,"plural","nothing"
"467",NA,98,19,"1","phones",FALSE,1,1328,"plural","nothing"
"468",NA,98,20,"1","mittens",FALSE,1,1768,"lexical","item"
"469",NA,98,21,"1","guitars",FALSE,1,1546,"lexical","item"
"470",NA,98,22,"1","buckets",TRUE,1,1958,"lexical","nothing"
"471",NA,98,23,"1","cookies",FALSE,1,1310,"lexical","item"
"472",NA,98,24,"1","dogs",TRUE,1,1985,"plural","item"
"473",NA,98,25,"1","plants",FALSE,1,1096,"lexical","item"
"474",NA,98,26,"1","forks",FALSE,1,1300,"plural","nothing"
"475",NA,98,27,"1","presents",TRUE,1,986,"plural","item"
"476",NA,98,28,"1","daisies",TRUE,1,1106,"plural","item"
"477",NA,65,1,"1","bows",FALSE,1,1933,"lexical","item"
"478",NA,65,2,"1","mittens",FALSE,1,1485,"plural","nothing"
"479",NA,65,3,"1","cats",TRUE,1,1280,"lexical","nothing"
"480",NA,65,4,"1","scissors",TRUE,1,2538,"plural","item"
"481",NA,65,5,"1","flowers",TRUE,1,1544,"lexical","nothing"
"482",NA,65,6,"1","cars",TRUE,1,1704,"plural","item"
"483",NA,65,7,"1","donuts",TRUE,1,1523,"plural","item"
"484",NA,65,8,"1","daisies",TRUE,1,4625,"lexical","nothing"
"485",NA,65,9,"1","carrots",FALSE,1,1414,"plural","nothing"
"486",NA,65,10,"1","forks",TRUE,1,3327,"plural","item"
"487",NA,65,11,"1","apples",FALSE,1,2186,"plural","nothing"
"488",NA,65,12,"1","plants",FALSE,1,2378,"lexical","item"
"489",NA,65,13,"1","cakes",FALSE,1,1389,"lexical","item"
"490",NA,65,14,"1","phones",TRUE,1,1749,"lexical","nothing"
"491",NA,65,15,"1","umbrellas",TRUE,1,1517,"plural","item"
"492",NA,65,16,"1","rainboots",FALSE,1,1764,"plural","nothing"
"493",NA,65,17,"1","backpacks",TRUE,1,1464,"lexical","nothing"
"494",NA,65,18,"1","cookies",TRUE,1,1158,"lexical","nothing"
"495",NA,65,19,"1","bananas",FALSE,1,1160,"plural","nothing"
"496",NA,65,20,"1","buckets",FALSE,1,1616,"lexical","item"
"497",NA,65,21,"1","purses",FALSE,1,2066,"lexical","item"
"498",NA,65,22,"1","shovels",TRUE,1,1400,"plural","item"
"499",NA,65,23,"1","dogs",FALSE,1,989,"plural","nothing"
"500",NA,65,24,"1","pencils",TRUE,1,1486,"plural","item"
"501",NA,65,25,"1","kites",FALSE,1,1161,"lexical","item"
"502",NA,65,26,"1","fish",FALSE,1,1210,"lexical","item"
"503",NA,65,27,"1","presents",FALSE,1,1674,"plural","nothing"
"504",NA,65,28,"1","guitars",TRUE,1,1369,"lexical","nothing"
"505",NA,17,1,"0","cars",TRUE,1,1025,"plural","item"
"506",NA,17,2,"0","pencils",FALSE,0,1245,"lexical","nothing"
"507",NA,17,3,"0","fish",FALSE,1,1291,"lexical","item"
"508",NA,17,4,"0","mittens",TRUE,1,1409,"lexical","nothing"
"509",NA,17,5,"0","cookies",FALSE,1,1179,"plural","nothing"
"510",NA,17,6,"0","scissors",FALSE,1,1108,"plural","nothing"
"511",NA,17,7,"0","backpacks",FALSE,0,1395,"lexical","nothing"
"512",NA,17,8,"0","purses",TRUE,1,1050,"plural","item"
"513",NA,17,9,"0","cats",FALSE,1,1441,"plural","nothing"
"514",NA,17,10,"0","buckets",TRUE,1,1290,"lexical","nothing"
"515",NA,17,11,"0","donuts",FALSE,1,1267,"plural","nothing"
"516",NA,17,12,"0","shovels",TRUE,1,810,"plural","item"
"517",NA,17,13,"0","presents",FALSE,1,1037,"plural","nothing"
"518",NA,17,14,"0","daisies",FALSE,1,1234,"lexical","item"
"519",NA,17,15,"0","flowers",FALSE,1,1376,"lexical","item"
"520",NA,17,16,"0","kites",TRUE,1,852,"plural","item"
"521",NA,17,17,"0","umbrellas",FALSE,1,958,"plural","nothing"
"522",NA,17,18,"0","cakes",FALSE,1,829,"lexical","item"
"523",NA,17,19,"0","bows",FALSE,1,1522,"lexical","item"
"524",NA,17,20,"0","guitars",FALSE,0,844,"lexical","nothing"
"525",NA,17,21,"0","rainboots",FALSE,1,1861,"plural","nothing"
"526",NA,17,22,"0","carrots",TRUE,1,1657,"plural","item"
"527",NA,17,23,"0","phones",TRUE,1,922,"plural","item"
"528",NA,17,24,"0","forks",FALSE,1,1049,"lexical","item"
"529",NA,17,25,"0","bananas",FALSE,0,1561,"lexical","nothing"
"530",NA,17,26,"0","plants",TRUE,1,1226,"lexical","nothing"
"531",NA,17,27,"0","dogs",FALSE,1,1046,"lexical","item"
"532",NA,17,28,"0","apples",TRUE,1,1203,"plural","item"
"533",NA,54,1,"1","umbrellas",FALSE,1,941,"plural","nothing"
"534",NA,54,2,"1","scissors",FALSE,1,1136,"lexical","item"
"535",NA,54,3,"1","kites",FALSE,1,895,"lexical","item"
"536",NA,54,4,"1","pencils",FALSE,1,1312,"plural","nothing"
"537",NA,54,5,"1","cookies",FALSE,1,1002,"lexical","item"
"538",NA,54,6,"1","dogs",TRUE,1,1335,"lexical","nothing"
"539",NA,54,7,"1","cakes",TRUE,1,1242,"lexical","nothing"
"540",NA,54,8,"1","daisies",FALSE,1,1313,"plural","nothing"
"541",NA,54,9,"1","purses",TRUE,1,1072,"lexical","nothing"
"542",NA,54,10,"1","fish",FALSE,1,943,"lexical","item"
"543",NA,54,11,"1","cars",TRUE,1,1176,"plural","item"
"544",NA,54,12,"1","backpacks",TRUE,1,1248,"plural","item"
"545",NA,54,13,"1","bananas",TRUE,1,874,"plural","item"
"546",NA,54,14,"1","mittens",TRUE,1,912,"plural","item"
"547",NA,54,15,"1","shovels",TRUE,1,969,"plural","item"
"548",NA,54,16,"1","cats",FALSE,1,1089,"lexical","item"
"549",NA,54,17,"1","buckets",FALSE,0,1328,"lexical","nothing"
"550",NA,54,18,"1","donuts",TRUE,1,1049,"plural","item"
"551",NA,54,19,"1","flowers",FALSE,1,1320,"plural","nothing"
"552",NA,54,20,"1","apples",FALSE,1,1057,"lexical","item"
"553",NA,54,21,"1","carrots",FALSE,1,1040,"plural","nothing"
"554",NA,54,22,"1","bows",FALSE,1,1536,"plural","nothing"
"555",NA,54,23,"1","phones",TRUE,1,1176,"lexical","nothing"
"556",NA,54,24,"1","rainboots",FALSE,1,1137,"plural","nothing"
"557",NA,54,25,"1","presents",TRUE,1,904,"lexical","nothing"
"558",NA,54,26,"1","plants",TRUE,1,1087,"plural","item"
"559",NA,54,27,"1","guitars",FALSE,1,1650,"lexical","item"
"560",NA,54,28,"1","forks",TRUE,1,872,"lexical","nothing"
"561",NA,44,1,"1","flowers",TRUE,1,2784,"plural","item"
"562",NA,44,2,"1","fish",FALSE,1,1756,"lexical","item"
"563",NA,44,3,"1","carrots",TRUE,1,1826,"lexical","nothing"
"564",NA,44,4,"1","cookies",TRUE,1,2641,"plural","item"
"565",NA,44,5,"1","bows",TRUE,1,3253,"lexical","nothing"
"566",NA,44,6,"1","plants",FALSE,1,2331,"plural","nothing"
"567",NA,44,7,"1","cakes",FALSE,1,1818,"plural","nothing"
"568",NA,44,8,"1","forks",TRUE,1,1717,"lexical","nothing"
"569",NA,44,9,"1","backpacks",FALSE,1,2127,"plural","nothing"
"570",NA,44,10,"1","kites",TRUE,1,1410,"plural","item"
"571",NA,44,11,"1","buckets",TRUE,1,2286,"lexical","nothing"
"572",NA,44,12,"1","mittens",FALSE,1,1451,"lexical","item"
"573",NA,44,13,"1","pencils",TRUE,1,1204,"plural","item"
"574",NA,44,14,"1","rainboots",TRUE,1,1576,"lexical","nothing"
"575",NA,44,15,"1","umbrellas",TRUE,1,1342,"plural","item"
"576",NA,44,16,"1","guitars",TRUE,1,1619,"plural","item"
"577",NA,44,17,"1","daisies",FALSE,1,1103,"lexical","item"
"578",NA,44,18,"1","cars",FALSE,1,2953,"lexical","item"
"579",NA,44,19,"1","bananas",TRUE,1,1402,"lexical","nothing"
"580",NA,44,20,"1","phones",TRUE,1,1512,"lexical","nothing"
"581",NA,44,21,"1","apples",FALSE,1,1409,"plural","nothing"
"582",NA,44,22,"1","donuts",FALSE,1,1512,"lexical","item"
"583",NA,44,23,"1","shovels",FALSE,1,1512,"plural","nothing"
"584",NA,44,24,"1","dogs",TRUE,1,1810,"plural","item"
"585",NA,44,25,"1","presents",FALSE,1,1930,"plural","nothing"
"586",NA,44,26,"1","scissors",FALSE,1,1102,"lexical","item"
"587",NA,44,27,"1","cats",FALSE,1,1345,"lexical","item"
"588",NA,44,28,"1","purses",FALSE,1,1576,"plural","nothing"
"589",NA,97,1,"0","presents",FALSE,1,1654,"lexical","item"
"590",NA,97,2,"0","guitars",FALSE,1,1200,"lexical","item"
"591",NA,97,3,"0","buckets",TRUE,1,1358,"lexical","nothing"
"592",NA,97,4,"0","umbrellas",TRUE,1,1263,"lexical","nothing"
"593",NA,97,5,"0","cars",TRUE,1,1299,"plural","item"
"594",NA,97,6,"0","cats",TRUE,1,1037,"plural","item"
"595",NA,97,7,"0","flowers",TRUE,1,1438,"plural","item"
"596",NA,97,8,"0","kites",TRUE,1,1399,"lexical","nothing"
"597",NA,97,9,"0","bananas",FALSE,1,1324,"plural","nothing"
"598",NA,97,10,"0","donuts",TRUE,1,1767,"lexical","nothing"
"599",NA,97,11,"0","scissors",TRUE,1,1199,"lexical","nothing"
"600",NA,97,12,"0","pencils",FALSE,1,1508,"lexical","item"
"601",NA,97,13,"0","cakes",FALSE,1,1127,"lexical","item"
"602",NA,97,14,"0","phones",FALSE,1,1768,"plural","nothing"
"603",NA,97,15,"0","mittens",FALSE,1,1304,"lexical","item"
"604",NA,97,16,"0","fish",TRUE,1,1090,"plural","item"
"605",NA,97,17,"0","daisies",TRUE,1,1243,"lexical","nothing"
"606",NA,97,18,"0","shovels",FALSE,1,1876,"plural","nothing"
"607",NA,97,19,"0","dogs",FALSE,1,1767,"plural","nothing"
"608",NA,97,20,"0","plants",FALSE,1,1320,"plural","nothing"
"609",NA,97,21,"0","rainboots",TRUE,1,1494,"plural","item"
"610",NA,97,22,"0","apples",FALSE,1,1030,"plural","nothing"
"611",NA,97,23,"0","forks",FALSE,1,1202,"lexical","item"
"612",NA,97,24,"0","carrots",TRUE,1,1635,"lexical","nothing"
"613",NA,97,25,"0","backpacks",FALSE,1,1754,"plural","nothing"
"614",NA,97,26,"0","bows",TRUE,1,1358,"plural","item"
"615",NA,97,27,"0","purses",TRUE,1,1276,"plural","item"
"616",NA,97,28,"0","cookies",FALSE,1,1359,"lexical","item"
"617",NA,32,1,"1","forks",FALSE,1,1269,"lexical","item"
"618",NA,32,2,"1","umbrellas",TRUE,0,1187,"plural","nothing"
"619",NA,32,3,"1","presents",TRUE,1,992,"plural","item"
"620",NA,32,4,"1","rainboots",TRUE,0,1303,"lexical","item"
"621",NA,32,5,"1","pencils",TRUE,1,1344,"lexical","nothing"
"622",NA,32,6,"1","bananas",FALSE,1,1386,"lexical","item"
"623",NA,32,7,"1","phones",TRUE,0,1089,"plural","nothing"
"624",NA,32,8,"1","cookies",TRUE,1,1255,"lexical","nothing"
"625",NA,32,9,"1","scissors",FALSE,1,1417,"plural","nothing"
"626",NA,32,10,"1","purses",TRUE,1,2210,"plural","item"
"627",NA,32,11,"1","mittens",TRUE,1,1153,"lexical","nothing"
"628",NA,32,12,"1","apples",FALSE,1,1465,"plural","nothing"
"629",NA,32,13,"1","donuts",TRUE,1,1234,"lexical","nothing"
"630",NA,32,14,"1","bows",TRUE,1,1528,"lexical","nothing"
"631",NA,32,15,"1","cats",TRUE,1,1466,"lexical","nothing"
"632",NA,32,16,"1","carrots",TRUE,1,800,"lexical","nothing"
"633",NA,32,17,"1","flowers",TRUE,1,897,"plural","item"
"634",NA,32,18,"1","cakes",TRUE,1,954,"plural","item"
"635",NA,32,19,"1","buckets",FALSE,1,1192,"plural","nothing"
"636",NA,32,20,"1","guitars",TRUE,0,1425,"lexical","item"
"637",NA,32,21,"1","plants",FALSE,1,1001,"lexical","item"
"638",NA,32,22,"1","dogs",TRUE,1,1506,"plural","item"
"639",NA,32,23,"1","shovels",FALSE,1,1321,"lexical","item"
"640",NA,32,24,"1","fish",FALSE,1,1378,"plural","nothing"
"641",NA,32,25,"1","cars",FALSE,1,1434,"lexical","item"
"642",NA,32,26,"1","backpacks",FALSE,1,1152,"plural","nothing"
"643",NA,32,27,"1","daisies",TRUE,1,922,"plural","item"
"644",NA,32,28,"1","kites",TRUE,1,785,"plural","item"
"645",NA,21,1,"1","buckets",FALSE,1,1491,"plural","nothing"
"646",NA,21,2,"1","flowers",FALSE,1,1357,"plural","nothing"
"647",NA,21,3,"1","kites",FALSE,1,1192,"plural","nothing"
"648",NA,21,4,"1","purses",FALSE,1,1340,"lexical","item"
"649",NA,21,5,"1","rainboots",FALSE,1,1300,"lexical","item"
"650",NA,21,6,"1","umbrellas",TRUE,1,1263,"lexical","nothing"
"651",NA,21,7,"1","phones",FALSE,1,1869,"plural","nothing"
"652",NA,21,8,"1","forks",TRUE,1,1182,"lexical","nothing"
"653",NA,21,9,"1","daisies",FALSE,1,1149,"lexical","item"
"654",NA,21,10,"1","cakes",FALSE,1,869,"lexical","item"
"655",NA,21,11,"1","presents",TRUE,1,3256,"plural","item"
"656",NA,21,12,"1","fish",TRUE,1,774,"plural","item"
"657",NA,21,13,"1","bananas",TRUE,1,1600,"lexical","nothing"
"658",NA,21,14,"1","mittens",TRUE,1,1281,"plural","item"
"659",NA,21,15,"1","apples",FALSE,1,1356,"lexical","item"
"660",NA,21,16,"1","backpacks",FALSE,1,1328,"lexical","item"
"661",NA,21,17,"1","carrots",FALSE,1,1342,"plural","nothing"
"662",NA,21,18,"1","donuts",FALSE,1,1502,"plural","nothing"
"663",NA,21,19,"1","cats",TRUE,1,1229,"lexical","nothing"
"664",NA,21,20,"1","scissors",TRUE,1,1327,"plural","item"
"665",NA,21,21,"1","cars",TRUE,1,1439,"lexical","nothing"
"666",NA,21,22,"1","guitars",TRUE,1,1435,"plural","item"
"667",NA,21,23,"1","pencils",FALSE,1,1155,"lexical","item"
"668",NA,21,24,"1","shovels",TRUE,1,1631,"lexical","nothing"
"669",NA,21,25,"1","bows",TRUE,1,1387,"plural","item"
"670",NA,21,26,"1","cookies",TRUE,1,1278,"lexical","nothing"
"671",NA,21,27,"1","dogs",TRUE,1,1281,"plural","item"
"672",NA,21,28,"1","plants",FALSE,1,1087,"plural","nothing"
"673",NA,82,1,"0","purses",TRUE,1,1691,"lexical","nothing"
"674",NA,82,2,"0","mittens",FALSE,1,1472,"plural","nothing"
"675",NA,82,3,"0","phones",TRUE,1,2545,"plural","item"
"676",NA,82,4,"0","apples",FALSE,1,1611,"plural","nothing"
"677",NA,82,5,"0","cakes",TRUE,1,3364,"plural","item"
"678",NA,82,6,"0","fish",FALSE,1,1528,"lexical","item"
"679",NA,82,7,"0","rainboots",TRUE,0,1464,"plural","nothing"
"680",NA,82,8,"0","bows",TRUE,1,1437,"plural","item"
"681",NA,82,9,"0","bananas",FALSE,1,1622,"plural","nothing"
"682",NA,82,10,"0","dogs",FALSE,1,1474,"lexical","item"
"683",NA,82,11,"0","guitars",TRUE,1,1323,"lexical","nothing"
"684",NA,82,12,"0","shovels",TRUE,1,1271,"plural","item"
"685",NA,82,13,"0","donuts",FALSE,1,1711,"lexical","item"
"686",NA,82,14,"0","pencils",FALSE,1,1823,"plural","nothing"
"687",NA,82,15,"0","buckets",FALSE,1,3468,"lexical","item"
"688",NA,82,16,"0","plants",TRUE,1,1338,"lexical","nothing"
"689",NA,82,17,"0","carrots",FALSE,1,5616,"plural","nothing"
"690",NA,82,18,"0","presents",TRUE,1,2066,"lexical","nothing"
"691",NA,82,19,"0","umbrellas",TRUE,1,3030,"lexical","nothing"
"692",NA,82,20,"0","scissors",TRUE,1,2438,"plural","item"
"693",NA,82,21,"0","cookies",FALSE,1,1341,"plural","nothing"
"694",NA,82,22,"0","kites",FALSE,1,1351,"lexical","item"
"695",NA,82,23,"0","forks",FALSE,1,1073,"lexical","item"
"696",NA,82,24,"0","backpacks",FALSE,1,1136,"lexical","item"
"697",NA,82,25,"0","cars",TRUE,1,1556,"plural","item"
"698",NA,82,26,"0","cats",TRUE,1,1512,"lexical","nothing"
"699",NA,82,27,"0","flowers",TRUE,1,1181,"plural","item"
"700",NA,82,28,"0","daisies",TRUE,1,1456,"lexical","nothing"
"701",NA,16,1,"0","bows",FALSE,1,1845,"plural","nothing"
"702",NA,16,2,"0","donuts",TRUE,1,1267,"lexical","nothing"
"703",NA,16,3,"0","apples",FALSE,1,1229,"lexical","item"
"704",NA,16,4,"0","flowers",FALSE,1,1214,"plural","nothing"
"705",NA,16,5,"0","cars",FALSE,1,1095,"lexical","item"
"706",NA,16,6,"0","shovels",FALSE,1,872,"lexical","item"
"707",NA,16,7,"0","carrots",TRUE,1,967,"plural","item"
"708",NA,16,8,"0","scissors",TRUE,1,919,"plural","item"
"709",NA,16,9,"0","forks",FALSE,1,983,"plural","nothing"
"710",NA,16,10,"0","cookies",FALSE,1,871,"plural","nothing"
"711",NA,16,11,"0","phones",FALSE,1,855,"plural","nothing"
"712",NA,16,12,"0","guitars",FALSE,1,767,"plural","nothing"
"713",NA,16,13,"0","daisies",TRUE,0,827,"lexical","item"
"714",NA,16,14,"0","cakes",TRUE,1,1087,"plural","item"
"715",NA,16,15,"0","kites",TRUE,1,1959,"lexical","nothing"
"716",NA,16,16,"0","plants",TRUE,1,825,"lexical","nothing"
"717",NA,16,17,"0","backpacks",TRUE,1,944,"lexical","nothing"
"718",NA,16,18,"0","mittens",TRUE,1,1559,"lexical","nothing"
"719",NA,16,19,"0","buckets",TRUE,1,1249,"plural","item"
"720",NA,16,20,"0","purses",TRUE,1,1063,"lexical","nothing"
"721",NA,16,21,"0","dogs",FALSE,1,1241,"lexical","item"
"722",NA,16,22,"0","cats",TRUE,1,1024,"plural","item"
"723",NA,16,23,"0","pencils",FALSE,1,2063,"lexical","item"
"724",NA,16,24,"0","umbrellas",FALSE,1,1606,"plural","nothing"
"725",NA,16,25,"0","rainboots",TRUE,1,2177,"plural","item"
"726",NA,16,26,"0","bananas",FALSE,1,1088,"lexical","item"
"727",NA,16,27,"0","fish",TRUE,1,1528,"lexical","nothing"
"728",NA,16,28,"0","presents",TRUE,1,2014,"plural","item"
"729",NA,70,1,"1","guitars",TRUE,1,1030,"plural","item"
"730",NA,70,2,"1","scissors",FALSE,1,974,"lexical","item"
"731",NA,70,3,"1","purses",FALSE,1,1186,"plural","nothing"
"732",NA,70,4,"1","bows",TRUE,1,1031,"plural","item"
"733",NA,70,5,"1","bananas",FALSE,1,1005,"lexical","item"
"734",NA,70,6,"1","flowers",TRUE,1,1088,"lexical","nothing"
"735",NA,70,7,"1","cars",TRUE,1,999,"lexical","nothing"
"736",NA,70,8,"1","donuts",FALSE,1,1050,"lexical","item"
"737",NA,70,9,"1","shovels",TRUE,1,997,"lexical","nothing"
"738",NA,70,10,"1","cakes",TRUE,0,865,"plural","nothing"
"739",NA,70,11,"1","phones",TRUE,1,983,"plural","item"
"740",NA,70,12,"1","pencils",FALSE,1,859,"plural","nothing"
"741",NA,70,13,"1","plants",FALSE,1,1583,"lexical","item"
"742",NA,70,14,"1","carrots",TRUE,1,910,"plural","item"
"743",NA,70,15,"1","dogs",TRUE,1,930,"lexical","nothing"
"744",NA,70,16,"1","apples",TRUE,1,1012,"plural","item"
"745",NA,70,17,"1","mittens",FALSE,1,933,"plural","nothing"
"746",NA,70,18,"1","forks",FALSE,1,806,"plural","nothing"
"747",NA,70,19,"1","daisies",TRUE,1,923,"lexical","nothing"
"748",NA,70,20,"1","cats",FALSE,1,1038,"plural","nothing"
"749",NA,70,21,"1","kites",TRUE,1,879,"lexical","nothing"
"750",NA,70,22,"1","rainboots",TRUE,1,894,"plural","item"
"751",NA,70,23,"1","buckets",FALSE,1,946,"plural","nothing"
"752",NA,70,24,"1","fish",TRUE,1,1000,"lexical","nothing"
"753",NA,70,25,"1","umbrellas",FALSE,1,1098,"lexical","item"
"754",NA,70,26,"1","presents",FALSE,1,1061,"lexical","item"
"755",NA,70,27,"1","cookies",FALSE,1,1003,"lexical","item"
"756",NA,70,28,"1","backpacks",TRUE,1,1202,"plural","item"
"757",NA,62,1,"1","shovels",TRUE,1,2148,"lexical","nothing"
"758",NA,62,2,"1","guitars",TRUE,1,2006,"plural","item"
"759",NA,62,3,"1","cookies",FALSE,1,1571,"plural","nothing"
"760",NA,62,4,"1","presents",FALSE,1,2226,"lexical","item"
"761",NA,62,5,"1","cats",TRUE,1,1994,"lexical","nothing"
"762",NA,62,6,"1","mittens",TRUE,1,1775,"plural","item"
"763",NA,62,7,"1","bows",FALSE,1,1483,"plural","nothing"
"764",NA,62,8,"1","plants",TRUE,1,1271,"lexical","nothing"
"765",NA,62,9,"1","daisies",FALSE,1,1590,"lexical","item"
"766",NA,62,10,"1","dogs",TRUE,1,1237,"plural","item"
"767",NA,62,11,"1","cakes",FALSE,1,1814,"plural","nothing"
"768",NA,62,12,"1","scissors",FALSE,1,1732,"lexical","item"
"769",NA,62,13,"1","forks",TRUE,1,1835,"lexical","nothing"
"770",NA,62,14,"1","bananas",FALSE,1,1226,"lexical","item"
"771",NA,62,15,"1","pencils",FALSE,1,1556,"plural","nothing"
"772",NA,62,16,"1","flowers",FALSE,1,2270,"lexical","item"
"773",NA,62,17,"1","apples",TRUE,1,1343,"lexical","nothing"
"774",NA,62,18,"1","donuts",FALSE,1,1297,"plural","nothing"
"775",NA,62,19,"1","rainboots",FALSE,1,3463,"lexical","item"
"776",NA,62,20,"1","cars",TRUE,1,1654,"plural","item"
"777",NA,62,21,"1","purses",TRUE,1,2058,"plural","item"
"778",NA,62,22,"1","umbrellas",TRUE,1,1395,"plural","item"
"779",NA,62,23,"1","carrots",TRUE,1,912,"plural","item"
"780",NA,62,24,"1","buckets",FALSE,1,1467,"lexical","item"
"781",NA,62,25,"1","fish",FALSE,1,1578,"plural","nothing"
"782",NA,62,26,"1","kites",TRUE,1,1143,"lexical","nothing"
"783",NA,62,27,"1","backpacks",FALSE,1,1684,"plural","nothing"
"784",NA,62,28,"1","phones",TRUE,1,1618,"lexical","nothing"
"785",NA,22,1,"0","fish",FALSE,0,1410,"plural","item"
"786",NA,22,2,"0","guitars",TRUE,1,1020,"plural","item"
"787",NA,22,3,"0","flowers",FALSE,1,1078,"plural","nothing"
"788",NA,22,4,"0","carrots",TRUE,1,1058,"plural","item"
"789",NA,22,5,"0","presents",FALSE,1,1095,"lexical","item"
"790",NA,22,6,"0","daisies",FALSE,1,1071,"plural","nothing"
"791",NA,22,7,"0","cakes",TRUE,1,814,"plural","item"
"792",NA,22,8,"0","cats",FALSE,1,759,"lexical","item"
"793",NA,22,9,"0","bows",FALSE,1,960,"plural","nothing"
"794",NA,22,10,"0","donuts",FALSE,1,920,"lexical","item"
"795",NA,22,11,"0","cars",TRUE,1,884,"plural","item"
"796",NA,22,12,"0","dogs",FALSE,0,862,"lexical","nothing"
"797",NA,22,13,"0","mittens",FALSE,1,1306,"lexical","item"
"798",NA,22,14,"0","kites",TRUE,1,1316,"lexical","nothing"
"799",NA,22,15,"0","purses",FALSE,1,1491,"plural","nothing"
"800",NA,22,16,"0","backpacks",TRUE,1,973,"plural","item"
"801",NA,22,17,"0","apples",FALSE,1,1138,"plural","nothing"
"802",NA,22,18,"0","forks",FALSE,1,2446,"lexical","item"
"803",NA,22,19,"0","buckets",TRUE,1,1046,"lexical","nothing"
"804",NA,22,20,"0","pencils",TRUE,1,1209,"lexical","nothing"
"805",NA,22,21,"0","scissors",FALSE,1,1280,"plural","nothing"
"806",NA,22,22,"0","rainboots",FALSE,1,1200,"plural","nothing"
"807",NA,22,23,"0","plants",FALSE,1,1008,"lexical","item"
"808",NA,22,24,"0","bananas",TRUE,1,1198,"lexical","nothing"
"809",NA,22,25,"0","shovels",TRUE,1,1040,"lexical","nothing"
"810",NA,22,26,"0","phones",TRUE,1,880,"lexical","nothing"
"811",NA,22,27,"0","umbrellas",TRUE,1,1833,"plural","item"
"812",NA,22,28,"0","cookies",FALSE,1,1386,"lexical","item"
"813",NA,4,1,"0","guitars",FALSE,1,1272,"plural","nothing"
"814",NA,4,2,"0","dogs",FALSE,1,1101,"lexical","item"
"815",NA,4,3,"0","rainboots",FALSE,1,1240,"plural","nothing"
"816",NA,4,4,"0","apples",TRUE,1,773,"plural","item"
"817",NA,4,5,"0","pencils",FALSE,1,1221,"plural","nothing"
"818",NA,4,6,"0","carrots",FALSE,1,1669,"plural","nothing"
"819",NA,4,7,"0","phones",FALSE,1,995,"plural","nothing"
"820",NA,4,8,"0","cakes",TRUE,1,1090,"plural","item"
"821",NA,4,9,"0","bananas",FALSE,1,1374,"lexical","item"
"822",NA,4,10,"0","cars",TRUE,1,1042,"plural","item"
"823",NA,4,11,"0","forks",FALSE,1,2137,"lexical","item"
"824",NA,4,12,"0","cats",FALSE,1,3693,"plural","nothing"
"825",NA,4,13,"0","kites",FALSE,0,4198,"lexical","nothing"
"826",NA,4,14,"0","presents",FALSE,1,3599,"lexical","item"
"827",NA,4,15,"0","mittens",TRUE,1,1178,"plural","item"
"828",NA,4,16,"0","cookies",FALSE,0,1095,"lexical","nothing"
"829",NA,4,17,"0","plants",TRUE,1,2300,"lexical","nothing"
"830",NA,4,18,"0","backpacks",TRUE,1,1540,"lexical","nothing"
"831",NA,4,19,"0","umbrellas",TRUE,1,4588,"plural","item"
"832",NA,4,20,"0","buckets",FALSE,1,2205,"plural","nothing"
"833",NA,4,21,"0","donuts",TRUE,1,1797,"lexical","nothing"
"834",NA,4,22,"0","flowers",FALSE,1,3325,"lexical","item"
"835",NA,4,23,"0","scissors",TRUE,1,1414,"lexical","nothing"
"836",NA,4,24,"0","shovels",TRUE,1,1839,"plural","item"
"837",NA,4,25,"0","daisies",TRUE,1,5675,"lexical","nothing"
"838",NA,4,26,"0","bows",TRUE,1,1668,"plural","item"
"839",NA,4,27,"0","purses",FALSE,1,2698,"lexical","item"
"840",NA,4,28,"0","fish",FALSE,1,1800,"lexical","item"
"841",NA,56,1,"1","forks",TRUE,1,3956,"plural","item"
"842",NA,56,2,"1","purses",FALSE,0,4453,"plural","item"
"843",NA,56,3,"1","scissors",TRUE,1,1707,"plural","item"
"844",NA,56,4,"1","cats",TRUE,1,2078,"lexical","nothing"
"845",NA,56,5,"1","presents",TRUE,1,1962,"lexical","nothing"
"846",NA,56,6,"1","bows",FALSE,1,1657,"lexical","item"
"847",NA,56,7,"1","flowers",FALSE,1,2393,"plural","nothing"
"848",NA,56,8,"1","plants",TRUE,0,1785,"plural","nothing"
"849",NA,56,9,"1","bananas",FALSE,1,1706,"plural","nothing"
"850",NA,56,10,"1","rainboots",TRUE,1,2082,"lexical","nothing"
"851",NA,56,11,"1","cookies",FALSE,1,2043,"plural","nothing"
"852",NA,56,12,"1","mittens",TRUE,1,1545,"lexical","nothing"
"853",NA,56,13,"1","cakes",TRUE,1,1532,"lexical","nothing"
"854",NA,56,14,"1","dogs",FALSE,1,2054,"lexical","item"
"855",NA,56,15,"1","fish",FALSE,1,2157,"plural","nothing"
"856",NA,56,16,"1","guitars",TRUE,1,2062,"plural","item"
"857",NA,56,17,"1","kites",FALSE,1,1461,"plural","nothing"
"858",NA,56,18,"1","buckets",TRUE,1,1706,"plural","item"
"859",NA,56,19,"1","umbrellas",TRUE,1,1953,"plural","item"
"860",NA,56,20,"1","cars",TRUE,1,1204,"lexical","nothing"
"861",NA,56,21,"1","donuts",TRUE,1,3043,"lexical","nothing"
"862",NA,56,22,"1","phones",TRUE,1,1402,"plural","item"
"863",NA,56,23,"1","pencils",FALSE,1,2050,"lexical","item"
"864",NA,56,24,"1","daisies",FALSE,1,1254,"lexical","item"
"865",NA,56,25,"1","shovels",FALSE,1,1438,"lexical","item"
"866",NA,56,26,"1","backpacks",FALSE,1,1763,"lexical","item"
"867",NA,56,27,"1","carrots",FALSE,1,3085,"plural","nothing"
"868",NA,56,28,"1","apples",FALSE,1,1838,"lexical","item"
"869",NA,94,1,"0","cars",FALSE,1,1445,"lexical","item"
"870",NA,94,2,"0","fish",TRUE,1,1905,"lexical","nothing"
"871",NA,94,3,"0","scissors",FALSE,1,1186,"lexical","item"
"872",NA,94,4,"0","umbrellas",FALSE,1,1615,"plural","nothing"
"873",NA,94,5,"0","presents",TRUE,1,2483,"lexical","nothing"
"874",NA,94,6,"0","phones",FALSE,1,1185,"lexical","item"
"875",NA,94,7,"0","bananas",FALSE,1,1698,"plural","nothing"
"876",NA,94,8,"0","plants",FALSE,1,1346,"plural","nothing"
"877",NA,94,9,"0","daisies",FALSE,1,1411,"lexical","item"
"878",NA,94,10,"0","pencils",TRUE,1,1443,"lexical","nothing"
"879",NA,94,11,"0","shovels",FALSE,1,1123,"lexical","item"
"880",NA,94,12,"0","kites",TRUE,1,1921,"plural","item"
"881",NA,94,13,"0","rainboots",TRUE,1,1265,"plural","item"
"882",NA,94,14,"0","mittens",TRUE,1,1090,"plural","item"
"883",NA,94,15,"0","bows",TRUE,1,1920,"lexical","nothing"
"884",NA,94,16,"0","purses",TRUE,1,2464,"lexical","nothing"
"885",NA,94,17,"0","dogs",TRUE,1,1169,"lexical","nothing"
"886",NA,94,18,"0","donuts",FALSE,1,2000,"lexical","item"
"887",NA,94,19,"0","buckets",TRUE,1,1747,"plural","item"
"888",NA,94,20,"0","carrots",FALSE,1,4721,"lexical","item"
"889",NA,94,21,"0","apples",FALSE,1,2034,"plural","nothing"
"890",NA,94,22,"0","cats",FALSE,1,3090,"plural","nothing"
"891",NA,94,23,"0","cookies",TRUE,1,3152,"lexical","nothing"
"892",NA,94,24,"0","flowers",TRUE,1,1089,"plural","item"
"893",NA,94,25,"0","backpacks",FALSE,1,1874,"plural","nothing"
"894",NA,94,26,"0","forks",TRUE,1,833,"plural","item"
"895",NA,94,27,"0","cakes",FALSE,1,1042,"plural","nothing"
"896",NA,94,28,"0","guitars",TRUE,1,1121,"plural","item"
"897",NA,39,1,"1","guitars",TRUE,1,1716,"lexical","nothing"
"898",NA,39,2,"1","pencils",TRUE,1,1399,"lexical","nothing"
"899",NA,39,3,"1","flowers",FALSE,1,1300,"plural","nothing"
"900",NA,39,4,"1","purses",FALSE,0,1454,"plural","item"
"901",NA,39,5,"1","shovels",TRUE,1,2013,"lexical","nothing"
"902",NA,39,6,"1","mittens",FALSE,1,2015,"lexical","item"
"903",NA,39,7,"1","carrots",FALSE,1,2460,"plural","nothing"
"904",NA,39,8,"1","kites",TRUE,1,1485,"plural","item"
"905",NA,39,9,"1","bananas",FALSE,1,1651,"plural","nothing"
"906",NA,39,10,"1","scissors",TRUE,1,1179,"plural","item"
"907",NA,39,11,"1","umbrellas",FALSE,1,1594,"plural","nothing"
"908",NA,39,12,"1","cars",TRUE,1,4492,"plural","item"
"909",NA,39,13,"1","dogs",TRUE,1,1195,"plural","item"
"910",NA,39,14,"1","buckets",FALSE,1,1673,"plural","nothing"
"911",NA,39,15,"1","cookies",FALSE,1,1327,"plural","nothing"
"912",NA,39,16,"1","cats",TRUE,1,1564,"lexical","nothing"
"913",NA,39,17,"1","apples",TRUE,1,1268,"plural","item"
"914",NA,39,18,"1","presents",TRUE,1,1413,"lexical","nothing"
"915",NA,39,19,"1","backpacks",FALSE,1,1389,"lexical","item"
"916",NA,39,20,"1","phones",FALSE,1,1489,"lexical","item"
"917",NA,39,21,"1","fish",FALSE,1,1307,"lexical","item"
"918",NA,39,22,"1","cakes",TRUE,1,1262,"lexical","nothing"
"919",NA,39,23,"1","forks",TRUE,1,1366,"plural","item"
"920",NA,39,24,"1","rainboots",FALSE,1,2019,"lexical","item"
"921",NA,39,25,"1","daisies",FALSE,1,1362,"lexical","item"
"922",NA,39,26,"1","plants",FALSE,1,1402,"plural","nothing"
"923",NA,39,27,"1","donuts",FALSE,1,1241,"lexical","item"
"924",NA,39,28,"1","bows",TRUE,1,1683,"lexical","nothing"
"925",NA,91,1,"0","pencils",FALSE,1,1420,"plural","nothing"
"926",NA,91,2,"0","presents",TRUE,1,927,"plural","item"
"927",NA,91,3,"0","rainboots",TRUE,1,1296,"lexical","nothing"
"928",NA,91,4,"0","cakes",TRUE,1,993,"plural","item"
"929",NA,91,5,"0","daisies",TRUE,1,1408,"lexical","nothing"
"930",NA,91,6,"0","umbrellas",FALSE,1,1160,"plural","nothing"
"931",NA,91,7,"0","bows",FALSE,1,1440,"plural","nothing"
"932",NA,91,8,"0","flowers",TRUE,1,1650,"lexical","nothing"
"933",NA,91,9,"0","purses",TRUE,1,1447,"plural","item"
"934",NA,91,10,"0","bananas",TRUE,1,1394,"plural","item"
"935",NA,91,11,"0","forks",TRUE,1,937,"plural","item"
"936",NA,91,12,"0","apples",TRUE,1,961,"plural","item"
"937",NA,91,13,"0","donuts",FALSE,1,1049,"lexical","item"
"938",NA,91,14,"0","carrots",FALSE,1,1273,"lexical","item"
"939",NA,91,15,"0","plants",FALSE,1,1424,"plural","nothing"
"940",NA,91,16,"0","phones",FALSE,1,1745,"plural","nothing"
"941",NA,91,17,"0","cookies",FALSE,1,1529,"lexical","item"
"942",NA,91,18,"0","mittens",TRUE,1,1256,"lexical","nothing"
"943",NA,91,19,"0","kites",FALSE,1,1689,"lexical","item"
"944",NA,91,20,"0","buckets",TRUE,1,1833,"lexical","nothing"
"945",NA,91,21,"0","backpacks",FALSE,1,1657,"plural","nothing"
"946",NA,91,22,"0","cats",FALSE,1,1713,"lexical","item"
"947",NA,91,23,"0","dogs",FALSE,1,1633,"plural","nothing"
"948",NA,91,24,"0","cars",FALSE,1,1194,"lexical","item"
"949",NA,91,25,"0","guitars",TRUE,1,1305,"plural","item"
"950",NA,91,26,"0","shovels",TRUE,1,1505,"lexical","nothing"
"951",NA,91,27,"0","scissors",TRUE,1,1362,"lexical","nothing"
"952",NA,91,28,"0","fish",FALSE,1,1707,"lexical","item"
"953",NA,93,1,"1","rainboots",TRUE,1,1858,"lexical","nothing"
"954",NA,93,2,"1","shovels",FALSE,1,2105,"plural","nothing"
"955",NA,93,3,"1","bananas",FALSE,1,1058,"plural","nothing"
"956",NA,93,4,"1","buckets",FALSE,1,2373,"lexical","item"
"957",NA,93,5,"1","kites",TRUE,1,1410,"lexical","nothing"
"958",NA,93,6,"1","presents",TRUE,1,1478,"plural","item"
"959",NA,93,7,"1","guitars",TRUE,1,1448,"lexical","nothing"
"960",NA,93,8,"1","scissors",TRUE,1,1210,"plural","item"
"961",NA,93,9,"1","cakes",TRUE,1,924,"plural","item"
"962",NA,93,10,"1","donuts",TRUE,1,1171,"plural","item"
"963",NA,93,11,"1","daisies",TRUE,0,1182,"lexical","item"
"964",NA,93,12,"1","phones",FALSE,1,1133,"plural","nothing"
"965",NA,93,13,"1","umbrellas",TRUE,1,2056,"lexical","nothing"
"966",NA,93,14,"1","forks",TRUE,1,1586,"lexical","nothing"
"967",NA,93,15,"1","backpacks",FALSE,1,2841,"plural","nothing"
"968",NA,93,16,"1","cats",FALSE,1,1183,"plural","nothing"
"969",NA,93,17,"1","plants",FALSE,1,2043,"plural","nothing"
"970",NA,93,18,"1","cars",FALSE,1,1035,"lexical","item"
"971",NA,93,19,"1","dogs",TRUE,1,1094,"plural","item"
"972",NA,93,20,"1","pencils",FALSE,0,1114,"lexical","nothing"
"973",NA,93,21,"1","mittens",TRUE,1,2271,"plural","item"
"974",NA,93,22,"1","flowers",TRUE,1,1264,"plural","item"
"975",NA,93,23,"1","purses",FALSE,1,1189,"lexical","item"
"976",NA,93,24,"1","carrots",FALSE,1,1652,"lexical","item"
"977",NA,93,25,"1","apples",FALSE,1,1391,"plural","nothing"
"978",NA,93,26,"1","fish",FALSE,1,1843,"lexical","item"
"979",NA,93,27,"1","cookies",FALSE,1,1845,"lexical","item"
"980",NA,93,28,"1","bows",TRUE,1,2256,"lexical","nothing"
"981",NA,68,1,"1","cats",TRUE,1,1373,"plural","item"
"982",NA,68,2,"1","pencils",TRUE,1,1732,"plural","item"
"983",NA,68,3,"1","cars",FALSE,1,1467,"plural","nothing"
"984",NA,68,4,"1","forks",TRUE,1,1670,"lexical","nothing"
"985",NA,68,5,"1","backpacks",FALSE,1,1123,"lexical","item"
"986",NA,68,6,"1","dogs",TRUE,1,1248,"lexical","nothing"
"987",NA,68,7,"1","kites",TRUE,1,920,"plural","item"
"988",NA,68,8,"1","purses",FALSE,0,1326,"lexical","nothing"
"989",NA,68,9,"1","buckets",FALSE,1,1685,"plural","nothing"
"990",NA,68,10,"1","apples",TRUE,1,1763,"lexical","nothing"
"991",NA,68,11,"1","fish",TRUE,1,1435,"plural","item"
"992",NA,68,12,"1","plants",FALSE,1,1030,"lexical","item"
"993",NA,68,13,"1","shovels",FALSE,1,1701,"plural","nothing"
"994",NA,68,14,"1","guitars",TRUE,0,1123,"lexical","item"
"995",NA,68,15,"1","presents",TRUE,0,1357,"lexical","item"
"996",NA,68,16,"1","cookies",TRUE,1,1841,"plural","item"
"997",NA,68,17,"1","bananas",TRUE,1,1451,"lexical","nothing"
"998",NA,68,18,"1","daisies",TRUE,0,1341,"plural","nothing"
"999",NA,68,19,"1","cakes",TRUE,1,1170,"plural","item"
"1000",NA,68,20,"1","carrots",TRUE,0,1436,"plural","nothing"
"1001",NA,68,21,"1","rainboots",TRUE,1,2013,"lexical","nothing"
"1002",NA,68,22,"1","flowers",TRUE,0,1653,"lexical","item"
"1003",NA,68,23,"1","mittens",FALSE,1,1903,"plural","nothing"
"1004",NA,68,24,"1","phones",FALSE,1,2231,"lexical","item"
"1005",NA,68,25,"1","donuts",FALSE,1,1451,"lexical","item"
"1006",NA,68,26,"1","bows",TRUE,1,2028,"plural","item"
"1007",NA,68,27,"1","scissors",FALSE,1,1576,"plural","nothing"
"1008",NA,68,28,"1","umbrellas",TRUE,1,1654,"lexical","nothing"
"1009",NA,8,1,"0","presents",TRUE,1,3716,"lexical","nothing"
"1010",NA,8,2,"0","cakes",FALSE,1,2261,"plural","nothing"
"1011",NA,8,3,"0","plants",FALSE,1,2504,"plural","nothing"
"1012",NA,8,4,"0","cookies",TRUE,1,1997,"plural","item"
"1013",NA,8,5,"0","bananas",TRUE,1,2219,"plural","item"
"1014",NA,8,6,"0","bows",FALSE,1,2737,"lexical","item"
"1015",NA,8,7,"0","pencils",FALSE,1,2473,"plural","nothing"
"1016",NA,8,8,"0","dogs",TRUE,1,1801,"plural","item"
"1017",NA,8,9,"0","apples",FALSE,1,1983,"plural","nothing"
"1018",NA,8,10,"0","scissors",TRUE,1,2603,"lexical","nothing"
"1019",NA,8,11,"0","donuts",TRUE,1,1680,"lexical","nothing"
"1020",NA,8,12,"0","forks",TRUE,1,2049,"lexical","nothing"
"1021",NA,8,13,"0","kites",TRUE,1,2246,"lexical","nothing"
"1022",NA,8,14,"0","rainboots",FALSE,1,3198,"plural","nothing"
"1023",NA,8,15,"0","flowers",TRUE,1,2608,"lexical","nothing"
"1024",NA,8,16,"0","fish",TRUE,1,1987,"plural","item"
"1025",NA,8,17,"0","backpacks",FALSE,1,2621,"lexical","item"
"1026",NA,8,18,"0","mittens",FALSE,1,2299,"plural","nothing"
"1027",NA,8,19,"0","guitars",TRUE,1,1607,"plural","item"
"1028",NA,8,20,"0","daisies",FALSE,1,2210,"plural","nothing"
"1029",NA,8,21,"0","purses",FALSE,1,2097,"lexical","item"
"1030",NA,8,22,"0","cats",FALSE,1,2171,"lexical","item"
"1031",NA,8,23,"0","carrots",TRUE,1,1955,"lexical","nothing"
"1032",NA,8,24,"0","umbrellas",TRUE,1,3005,"plural","item"
"1033",NA,8,25,"0","cars",FALSE,1,1735,"lexical","item"
"1034",NA,8,26,"0","phones",TRUE,1,1712,"plural","item"
"1035",NA,8,27,"0","buckets",FALSE,1,2330,"lexical","item"
"1036",NA,8,28,"0","shovels",FALSE,1,1887,"lexical","item"
"1037",NA,40,1,"0","phones",FALSE,1,1180,"plural","nothing"
"1038",NA,40,2,"0","cookies",FALSE,1,1376,"plural","nothing"
"1039",NA,40,3,"0","buckets",TRUE,1,1352,"lexical","nothing"
"1040",NA,40,4,"0","daisies",FALSE,1,1422,"lexical","item"
"1041",NA,40,5,"0","shovels",TRUE,1,1630,"plural","item"
"1042",NA,40,6,"0","backpacks",FALSE,1,1329,"plural","nothing"
"1043",NA,40,7,"0","fish",FALSE,1,1261,"lexical","item"
"1044",NA,40,8,"0","apples",FALSE,1,2182,"lexical","item"
"1045",NA,40,9,"0","cats",TRUE,1,1233,"plural","item"
"1046",NA,40,10,"0","plants",FALSE,1,1005,"plural","nothing"
"1047",NA,40,11,"0","carrots",TRUE,1,2165,"lexical","nothing"
"1048",NA,40,12,"0","presents",FALSE,1,2393,"lexical","item"
"1049",NA,40,13,"0","purses",TRUE,1,3866,"plural","item"
"1050",NA,40,14,"0","umbrellas",FALSE,1,1990,"plural","nothing"
"1051",NA,40,15,"0","bananas",FALSE,1,975,"plural","nothing"
"1052",NA,40,16,"0","scissors",FALSE,1,957,"plural","nothing"
"1053",NA,40,17,"0","flowers",TRUE,1,2407,"plural","item"
"1054",NA,40,18,"0","cars",TRUE,1,863,"plural","item"
"1055",NA,40,19,"0","forks",TRUE,1,1617,"lexical","nothing"
"1056",NA,40,20,"0","guitars",FALSE,1,1341,"lexical","item"
"1057",NA,40,21,"0","bows",TRUE,0,1232,"lexical","item"
"1058",NA,40,22,"0","mittens",TRUE,1,1843,"plural","item"
"1059",NA,40,23,"0","donuts",TRUE,1,1071,"plural","item"
"1060",NA,40,24,"0","kites",TRUE,1,2291,"lexical","nothing"
"1061",NA,40,25,"0","pencils",TRUE,1,1141,"lexical","nothing"
"1062",NA,40,26,"0","rainboots",TRUE,1,2085,"lexical","nothing"
"1063",NA,40,27,"0","cakes",FALSE,1,1605,"lexical","item"
"1064",NA,40,28,"0","dogs",TRUE,1,1500,"lexical","nothing"
"1065",NA,36,1,"1","buckets",TRUE,1,707,"lexical","nothing"
"1066",NA,36,2,"1","fish",FALSE,1,1448,"plural","nothing"
"1067",NA,36,3,"1","shovels",FALSE,1,1615,"lexical","item"
"1068",NA,36,4,"1","bananas",FALSE,1,905,"plural","nothing"
"1069",NA,36,5,"1","cars",FALSE,1,1735,"lexical","item"
"1070",NA,36,6,"1","apples",TRUE,1,1290,"plural","item"
"1071",NA,36,7,"1","donuts",TRUE,1,1079,"plural","item"
"1072",NA,36,8,"1","plants",FALSE,1,778,"plural","nothing"
"1073",NA,36,9,"1","forks",TRUE,0,982,"lexical","item"
"1074",NA,36,10,"1","backpacks",TRUE,1,1361,"plural","item"
"1075",NA,36,11,"1","kites",FALSE,0,1568,"lexical","nothing"
"1076",NA,36,12,"1","rainboots",TRUE,1,2081,"lexical","nothing"
"1077",NA,36,13,"1","mittens",TRUE,1,1417,"lexical","nothing"
"1078",NA,36,14,"1","scissors",TRUE,0,1051,"lexical","item"
"1079",NA,36,15,"1","umbrellas",TRUE,1,1199,"plural","item"
"1080",NA,36,16,"1","dogs",TRUE,1,2243,"lexical","nothing"
"1081",NA,36,17,"1","cats",FALSE,1,1407,"plural","nothing"
"1082",NA,36,18,"1","cakes",FALSE,1,1547,"lexical","item"
"1083",NA,36,19,"1","phones",FALSE,1,1614,"plural","nothing"
"1084",NA,36,20,"1","bows",TRUE,1,1534,"lexical","nothing"
"1085",NA,36,21,"1","guitars",TRUE,1,1917,"lexical","nothing"
"1086",NA,36,22,"1","purses",FALSE,1,1254,"lexical","item"
"1087",NA,36,23,"1","flowers",TRUE,1,1884,"plural","item"
"1088",NA,36,24,"1","carrots",FALSE,1,1761,"plural","nothing"
"1089",NA,36,25,"1","daisies",TRUE,1,1165,"plural","item"
"1090",NA,36,26,"1","presents",TRUE,1,981,"plural","item"
"1091",NA,36,27,"1","cookies",FALSE,1,1349,"lexical","item"
"1092",NA,36,28,"1","pencils",FALSE,1,1467,"plural","nothing"
"1093",NA,51,1,"0","buckets",FALSE,1,1875,"lexical","item"
"1094",NA,51,2,"0","kites",FALSE,1,1505,"lexical","item"
"1095",NA,51,3,"0","plants",FALSE,1,3934,"plural","nothing"
"1096",NA,51,4,"0","phones",TRUE,0,2341,"plural","nothing"
"1097",NA,51,5,"0","cookies",TRUE,1,1840,"lexical","nothing"
"1098",NA,51,6,"0","scissors",TRUE,1,1282,"lexical","nothing"
"1099",NA,51,7,"0","bananas",TRUE,1,1356,"plural","item"
"1100",NA,51,8,"0","cats",FALSE,1,1680,"lexical","item"
"1101",NA,51,9,"0","flowers",FALSE,1,1702,"lexical","item"
"1102",NA,51,10,"0","umbrellas",FALSE,1,1487,"plural","nothing"
"1103",NA,51,11,"0","fish",TRUE,1,1224,"plural","item"
"1104",NA,51,12,"0","cakes",FALSE,1,1440,"plural","nothing"
"1105",NA,51,13,"0","mittens",FALSE,0,2027,"lexical","nothing"
"1106",NA,51,14,"0","shovels",FALSE,1,2192,"lexical","item"
"1107",NA,51,15,"0","dogs",TRUE,1,1994,"lexical","nothing"
"1108",NA,51,16,"0","bows",FALSE,1,2465,"plural","nothing"
"1109",NA,51,17,"0","forks",FALSE,1,1163,"plural","nothing"
"1110",NA,51,18,"0","daisies",TRUE,1,1322,"plural","item"
"1111",NA,51,19,"0","pencils",TRUE,1,1377,"plural","item"
"1112",NA,51,20,"0","carrots",FALSE,1,1366,"plural","nothing"
"1113",NA,51,21,"0","presents",TRUE,1,1753,"lexical","nothing"
"1114",NA,51,22,"0","rainboots",TRUE,1,1592,"plural","item"
"1115",NA,51,23,"0","donuts",TRUE,1,845,"plural","item"
"1116",NA,51,24,"0","purses",TRUE,1,1545,"lexical","nothing"
"1117",NA,51,25,"0","guitars",FALSE,1,2547,"lexical","item"
"1118",NA,51,26,"0","apples",TRUE,1,1088,"plural","item"
"1119",NA,51,27,"0","backpacks",TRUE,1,1306,"lexical","nothing"
"1120",NA,51,28,"0","cars",FALSE,1,2141,"lexical","item"
"1121",NA,26,1,"0","cookies",TRUE,1,1431,"plural","item"
"1122",NA,26,2,"0","scissors",TRUE,1,1158,"plural","item"
"1123",NA,26,3,"0","fish",FALSE,1,1117,"plural","nothing"
"1124",NA,26,4,"0","buckets",FALSE,1,1751,"lexical","item"
"1125",NA,26,5,"0","dogs",FALSE,1,952,"plural","nothing"
"1126",NA,26,6,"0","cats",TRUE,1,1447,"lexical","nothing"
"1127",NA,26,7,"0","shovels",TRUE,1,1396,"plural","item"
"1128",NA,26,8,"0","plants",TRUE,1,3108,"lexical","nothing"
"1129",NA,26,9,"0","kites",TRUE,1,1469,"lexical","nothing"
"1130",NA,26,10,"0","cakes",TRUE,1,1094,"plural","item"
"1131",NA,26,11,"0","forks",FALSE,1,1509,"lexical","item"
"1132",NA,26,12,"0","mittens",TRUE,1,1799,"lexical","nothing"
"1133",NA,26,13,"0","cars",FALSE,1,1199,"lexical","item"
"1134",NA,26,14,"0","bows",TRUE,0,4154,"plural","nothing"
"1135",NA,26,15,"0","pencils",FALSE,1,1724,"plural","nothing"
"1136",NA,26,16,"0","guitars",FALSE,1,1284,"plural","nothing"
"1137",NA,26,17,"0","phones",FALSE,1,1486,"lexical","item"
"1138",NA,26,18,"0","rainboots",TRUE,1,1478,"plural","item"
"1139",NA,26,19,"0","daisies",FALSE,1,1125,"plural","nothing"
"1140",NA,26,20,"0","carrots",TRUE,1,2074,"lexical","nothing"
"1141",NA,26,21,"0","flowers",FALSE,1,2056,"lexical","item"
"1142",NA,26,22,"0","purses",FALSE,1,1235,"plural","nothing"
"1143",NA,26,23,"0","donuts",FALSE,1,1601,"lexical","item"
"1144",NA,26,24,"0","bananas",TRUE,1,906,"plural","item"
"1145",NA,26,25,"0","umbrellas",FALSE,0,1623,"lexical","nothing"
"1146",NA,26,26,"0","backpacks",TRUE,1,1184,"lexical","nothing"
"1147",NA,26,27,"0","apples",FALSE,1,931,"lexical","item"
"1148",NA,26,28,"0","presents",TRUE,1,777,"plural","item"
"1149",NA,85,1,"1","scissors",TRUE,1,6899,"plural","item"
"1150",NA,85,2,"1","cats",FALSE,1,2595,"lexical","item"
"1151",NA,85,3,"1","phones",TRUE,1,2221,"lexical","nothing"
"1152",NA,85,4,"1","umbrellas",TRUE,1,2685,"lexical","nothing"
"1153",NA,85,5,"1","donuts",TRUE,0,2133,"plural","nothing"
"1154",NA,85,6,"1","apples",FALSE,1,1632,"plural","nothing"
"1155",NA,85,7,"1","fish",TRUE,1,2020,"lexical","nothing"
"1156",NA,85,8,"1","cakes",TRUE,1,1994,"plural","item"
"1157",NA,85,9,"1","purses",TRUE,1,1977,"plural","item"
"1158",NA,85,10,"1","mittens",FALSE,1,2387,"lexical","item"
"1159",NA,85,11,"1","pencils",TRUE,1,2094,"plural","item"
"1160",NA,85,12,"1","plants",TRUE,1,1663,"plural","item"
"1161",NA,85,13,"1","forks",TRUE,1,3830,"lexical","nothing"
"1162",NA,85,14,"1","carrots",FALSE,1,3321,"lexical","item"
"1163",NA,85,15,"1","bows",FALSE,1,2667,"lexical","item"
"1164",NA,85,16,"1","dogs",TRUE,1,2407,"lexical","nothing"
"1165",NA,85,17,"1","cookies",FALSE,1,2808,"lexical","item"
"1166",NA,85,18,"1","backpacks",FALSE,1,3727,"lexical","item"
"1167",NA,85,19,"1","kites",TRUE,1,2118,"plural","item"
"1168",NA,85,20,"1","presents",TRUE,1,1657,"plural","item"
"1169",NA,85,21,"1","shovels",FALSE,1,2427,"plural","nothing"
"1170",NA,85,22,"1","daisies",TRUE,1,1903,"lexical","nothing"
"1171",NA,85,23,"1","rainboots",FALSE,1,3828,"plural","nothing"
"1172",NA,85,24,"1","flowers",TRUE,1,2577,"lexical","nothing"
"1173",NA,85,25,"1","cars",FALSE,1,2959,"lexical","item"
"1174",NA,85,26,"1","buckets",FALSE,1,1938,"plural","nothing"
"1175",NA,85,27,"1","guitars",FALSE,1,1832,"plural","nothing"
"1176",NA,85,28,"1","bananas",FALSE,1,1744,"plural","nothing"
"1177",NA,50,1,"1","shovels",FALSE,1,2938,"plural","nothing"
"1178",NA,50,2,"1","bows",TRUE,1,4034,"lexical","nothing"
"1179",NA,50,3,"1","phones",FALSE,1,1623,"lexical","item"
"1180",NA,50,4,"1","cakes",TRUE,1,2160,"plural","item"
"1181",NA,50,5,"1","backpacks",FALSE,1,1609,"plural","nothing"
"1182",NA,50,6,"1","plants",FALSE,1,1471,"plural","nothing"
"1183",NA,50,7,"1","kites",TRUE,1,1514,"plural","item"
"1184",NA,50,8,"1","mittens",TRUE,1,1635,"lexical","nothing"
"1185",NA,50,9,"1","dogs",FALSE,1,1165,"plural","nothing"
"1186",NA,50,10,"1","presents",TRUE,1,1652,"plural","item"
"1187",NA,50,11,"1","rainboots",FALSE,1,1716,"lexical","item"
"1188",NA,50,12,"1","pencils",TRUE,1,1534,"lexical","nothing"
"1189",NA,50,13,"1","donuts",FALSE,1,1602,"lexical","item"
"1190",NA,50,14,"1","guitars",FALSE,1,1326,"lexical","item"
"1191",NA,50,15,"1","flowers",TRUE,1,2036,"lexical","nothing"
"1192",NA,50,16,"1","forks",TRUE,1,2335,"plural","item"
"1193",NA,50,17,"1","cats",FALSE,1,1259,"plural","nothing"
"1194",NA,50,18,"1","cars",TRUE,1,1439,"lexical","nothing"
"1195",NA,50,19,"1","umbrellas",FALSE,1,1202,"lexical","item"
"1196",NA,50,20,"1","purses",TRUE,1,1347,"lexical","nothing"
"1197",NA,50,21,"1","daisies",FALSE,1,1227,"lexical","item"
"1198",NA,50,22,"1","bananas",TRUE,1,2196,"plural","item"
"1199",NA,50,23,"1","carrots",FALSE,1,3481,"lexical","item"
"1200",NA,50,24,"1","fish",TRUE,1,1481,"plural","item"
"1201",NA,50,25,"1","buckets",TRUE,1,1108,"plural","item"
"1202",NA,50,26,"1","scissors",FALSE,1,1214,"plural","nothing"
"1203",NA,50,27,"1","cookies",FALSE,1,1153,"plural","nothing"
"1204",NA,50,28,"1","apples",FALSE,0,1485,"lexical","nothing"
"1205",NA,96,1,"1","buckets",FALSE,1,1322,"plural","nothing"
"1206",NA,96,2,"1","forks",FALSE,1,1602,"lexical","item"
"1207",NA,96,3,"1","bows",FALSE,1,1422,"plural","nothing"
"1208",NA,96,4,"1","kites",FALSE,1,1022,"lexical","item"
"1209",NA,96,5,"1","carrots",FALSE,1,1211,"lexical","item"
"1210",NA,96,6,"1","flowers",FALSE,1,1682,"plural","nothing"
"1211",NA,96,7,"1","purses",FALSE,0,1182,"lexical","nothing"
"1212",NA,96,8,"1","cars",FALSE,1,991,"plural","nothing"
"1213",NA,96,9,"1","bananas",FALSE,1,1903,"lexical","item"
"1214",NA,96,10,"1","rainboots",FALSE,0,1423,"plural","item"
"1215",NA,96,11,"1","umbrellas",FALSE,1,1011,"plural","nothing"
"1216",NA,96,12,"1","shovels",FALSE,1,1693,"lexical","item"
"1217",NA,96,13,"1","fish",FALSE,0,1582,"lexical","nothing"
"1218",NA,96,14,"1","cats",TRUE,1,1853,"plural","item"
"1219",NA,96,15,"1","daisies",TRUE,1,1061,"plural","item"
"1220",NA,96,16,"1","phones",TRUE,1,972,"plural","item"
"1221",NA,96,17,"1","guitars",FALSE,1,1051,"lexical","item"
"1222",NA,96,18,"1","apples",FALSE,1,1853,"plural","nothing"
"1223",NA,96,19,"1","backpacks",TRUE,1,2003,"lexical","nothing"
"1224",NA,96,20,"1","donuts",TRUE,1,1012,"plural","item"
"1225",NA,96,21,"1","dogs",TRUE,1,1002,"plural","item"
"1226",NA,96,22,"1","cookies",TRUE,1,781,"plural","item"
"1227",NA,96,23,"1","scissors",TRUE,0,931,"lexical","item"
"1228",NA,96,24,"1","cakes",TRUE,1,1182,"lexical","nothing"
"1229",NA,96,25,"1","pencils",FALSE,1,1342,"plural","nothing"
"1230",NA,96,26,"1","presents",TRUE,1,1292,"lexical","nothing"
"1231",NA,96,27,"1","mittens",TRUE,1,1933,"lexical","nothing"
"1232",NA,96,28,"1","plants",TRUE,1,1042,"lexical","nothing"
"1233",NA,30,1,"0","bows",TRUE,1,2750,"lexical","nothing"
"1234",NA,30,2,"0","daisies",TRUE,1,2018,"lexical","nothing"
"1235",NA,30,3,"0","backpacks",TRUE,1,1679,"plural","item"
"1236",NA,30,4,"0","scissors",FALSE,1,2065,"lexical","item"
"1237",NA,30,5,"0","purses",TRUE,0,1562,"plural","nothing"
"1238",NA,30,6,"0","umbrellas",TRUE,1,1437,"plural","item"
"1239",NA,30,7,"0","cakes",TRUE,1,1390,"plural","item"
"1240",NA,30,8,"0","guitars",FALSE,1,1697,"lexical","item"
"1241",NA,30,9,"0","bananas",FALSE,1,1554,"plural","nothing"
"1242",NA,30,10,"0","pencils",FALSE,1,1618,"lexical","item"
"1243",NA,30,11,"0","buckets",FALSE,1,1716,"plural","nothing"
"1244",NA,30,12,"0","mittens",FALSE,1,1883,"plural","nothing"
"1245",NA,30,13,"0","forks",TRUE,1,1350,"plural","item"
"1246",NA,30,14,"0","apples",FALSE,1,1004,"plural","nothing"
"1247",NA,30,15,"0","kites",TRUE,1,1595,"plural","item"
"1248",NA,30,16,"0","shovels",TRUE,1,1203,"plural","item"
"1249",NA,30,17,"0","presents",TRUE,1,1737,"lexical","nothing"
"1250",NA,30,18,"0","flowers",FALSE,1,1699,"lexical","item"
"1251",NA,30,19,"0","dogs",FALSE,1,1185,"lexical","item"
"1252",NA,30,20,"0","phones",FALSE,1,1404,"plural","nothing"
"1253",NA,30,21,"0","fish",TRUE,1,1691,"lexical","nothing"
"1254",NA,30,22,"0","donuts",TRUE,1,1522,"lexical","nothing"
"1255",NA,30,23,"0","cats",FALSE,1,1523,"plural","nothing"
"1256",NA,30,24,"0","rainboots",FALSE,1,1947,"lexical","item"
"1257",NA,30,25,"0","cars",FALSE,1,2050,"lexical","item"
"1258",NA,30,26,"0","plants",TRUE,1,1868,"plural","item"
"1259",NA,30,27,"0","cookies",TRUE,1,1954,"lexical","nothing"
"1260",NA,30,28,"0","carrots",TRUE,1,1700,"lexical","nothing"
"1261",NA,19,1,"1","apples",TRUE,1,2883,"plural","item"
"1262",NA,19,2,"1","fish",TRUE,0,631,"lexical","item"
"1263",NA,19,3,"1","carrots",FALSE,1,669,"lexical","item"
"1264",NA,19,4,"1","bows",FALSE,1,542,"plural","nothing"
"1265",NA,19,5,"1","scissors",TRUE,1,322,"plural","item"
"1266",NA,19,6,"1","backpacks",TRUE,1,1291,"lexical","nothing"
"1267",NA,19,7,"1","daisies",FALSE,0,397,"plural","item"
"1268",NA,19,8,"1","rainboots",TRUE,0,400,"plural","nothing"
"1269",NA,19,9,"1","guitars",FALSE,1,399,"lexical","item"
"1270",NA,19,10,"1","cakes",FALSE,0,110,"lexical","nothing"
"1271",NA,19,11,"1","buckets",TRUE,1,407,"lexical","nothing"
"1272",NA,19,12,"1","kites",FALSE,1,357,"plural","nothing"
"1273",NA,19,13,"1","purses",FALSE,1,462,"lexical","item"
"1274",NA,19,14,"1","bananas",TRUE,0,311,"lexical","item"
"1275",NA,19,15,"1","cars",FALSE,1,29,"lexical","item"
"1276",NA,19,16,"1","phones",TRUE,1,446,"lexical","nothing"
"1277",NA,19,17,"1","cookies",TRUE,1,527,"lexical","nothing"
"1278",NA,19,18,"1","forks",TRUE,1,429,"lexical","nothing"
"1279",NA,19,19,"1","dogs",FALSE,1,444,"plural","nothing"
"1280",NA,19,20,"1","cats",TRUE,0,320,"plural","nothing"
"1281",NA,19,21,"1","presents",TRUE,0,560,"lexical","item"
"1282",NA,19,22,"1","shovels",FALSE,0,359,"lexical","nothing"
"1283",NA,19,23,"1","plants",TRUE,1,372,"plural","item"
"1284",NA,19,24,"1","pencils",TRUE,1,299,"plural","item"
"1285",NA,19,25,"1","donuts",FALSE,0,259,"plural","item"
"1286",NA,19,26,"1","umbrellas",TRUE,0,307,"plural","nothing"
"1287",NA,19,27,"1","flowers",FALSE,1,303,"plural","nothing"
"1288",NA,19,28,"1","mittens",TRUE,1,598,"plural","item"
"1289",NA,28,1,"0","umbrellas",FALSE,1,1085,"plural","nothing"
"1290",NA,28,2,"0","fish",FALSE,1,1387,"lexical","item"
"1291",NA,28,3,"0","forks",FALSE,0,1478,"lexical","nothing"
"1292",NA,28,4,"0","phones",TRUE,1,1491,"plural","item"
"1293",NA,28,5,"0","cookies",TRUE,1,1611,"lexical","nothing"
"1294",NA,28,6,"0","kites",FALSE,1,1869,"plural","nothing"
"1295",NA,28,7,"0","donuts",TRUE,1,1182,"plural","item"
"1296",NA,28,8,"0","apples",TRUE,1,1313,"plural","item"
"1297",NA,28,9,"0","buckets",TRUE,1,974,"plural","item"
"1298",NA,28,10,"0","mittens",FALSE,1,1438,"lexical","item"
"1299",NA,28,11,"0","bananas",FALSE,1,1471,"lexical","item"
"1300",NA,28,12,"0","cats",TRUE,1,1278,"plural","item"
"1301",NA,28,13,"0","shovels",TRUE,1,1346,"plural","item"
"1302",NA,28,14,"0","cakes",FALSE,1,1130,"lexical","item"
"1303",NA,28,15,"0","bows",TRUE,1,1984,"lexical","nothing"
"1304",NA,28,16,"0","guitars",FALSE,1,1541,"plural","nothing"
"1305",NA,28,17,"0","carrots",TRUE,1,1500,"lexical","nothing"
"1306",NA,28,18,"0","backpacks",FALSE,1,1700,"plural","nothing"
"1307",NA,28,19,"0","presents",FALSE,1,1385,"plural","nothing"
"1308",NA,28,20,"0","flowers",TRUE,1,1189,"lexical","nothing"
"1309",NA,28,21,"0","rainboots",TRUE,1,1609,"plural","item"
"1310",NA,28,22,"0","pencils",FALSE,1,1293,"plural","nothing"
"1311",NA,28,23,"0","purses",FALSE,1,1790,"lexical","item"
"1312",NA,28,24,"0","cars",FALSE,1,1112,"lexical","item"
"1313",NA,28,25,"0","plants",FALSE,1,1292,"lexical","item"
"1314",NA,28,26,"0","scissors",TRUE,1,1737,"lexical","nothing"
"1315",NA,28,27,"0","dogs",TRUE,1,1576,"lexical","nothing"
"1316",NA,28,28,"0","daisies",FALSE,1,1810,"plural","nothing"
"1317",NA,43,1,"0","mittens",TRUE,1,4764,"plural","item"
"1318",NA,43,2,"0","dogs",FALSE,1,1666,"lexical","item"
"1319",NA,43,3,"0","flowers",TRUE,1,2550,"lexical","nothing"
"1320",NA,43,4,"0","purses",FALSE,0,1278,"lexical","nothing"
"1321",NA,43,5,"0","shovels",TRUE,1,94,"lexical","nothing"
"1322",NA,43,6,"0","apples",FALSE,1,24,"lexical","item"
"1323",NA,43,7,"0","daisies",FALSE,1,108,"lexical","item"
"1324",NA,43,8,"0","backpacks",FALSE,1,2813,"plural","nothing"
"1325",NA,43,9,"0","cakes",FALSE,0,28,"plural","item"
"1326",NA,43,10,"0","rainboots",FALSE,1,3936,"plural","nothing"
"1327",NA,43,11,"0","kites",FALSE,0,52,"lexical","nothing"
"1328",NA,43,12,"0","carrots",TRUE,1,99,"lexical","nothing"
"1329",NA,43,13,"0","umbrellas",FALSE,1,2853,"lexical","item"
"1330",NA,43,14,"0","pencils",FALSE,1,132,"lexical","item"
"1331",NA,43,15,"0","bananas",FALSE,1,5505,"plural","nothing"
"1332",NA,43,16,"0","bows",FALSE,0,65,"plural","item"
"1333",NA,43,17,"0","cars",FALSE,0,32,"plural","item"
"1334",NA,43,18,"0","fish",FALSE,1,28,"lexical","item"
"1335",NA,43,19,"0","presents",TRUE,0,26,"plural","nothing"
"1336",NA,43,20,"0","forks",FALSE,0,1188,"lexical","nothing"
"1337",NA,43,21,"0","donuts",TRUE,1,3102,"lexical","nothing"
"1338",NA,43,22,"0","plants",TRUE,1,1482,"plural","item"
"1339",NA,43,23,"0","cats",FALSE,1,6795,"lexical","item"
"1340",NA,43,24,"0","buckets",FALSE,1,1158,"plural","nothing"
"1341",NA,43,25,"0","guitars",TRUE,1,1526,"plural","item"
"1342",NA,43,26,"0","phones",TRUE,1,1246,"plural","item"
"1343",NA,43,27,"0","scissors",FALSE,1,1127,"plural","nothing"
"1344",NA,43,28,"0","cookies",FALSE,1,1202,"plural","nothing"
"1345",NA,63,1,"1","cars",TRUE,1,1362,"plural","item"
"1346",NA,63,2,"1","fish",FALSE,1,1332,"plural","nothing"
"1347",NA,63,3,"1","pencils",FALSE,1,1644,"plural","nothing"
"1348",NA,63,4,"1","forks",FALSE,1,1524,"lexical","item"
"1349",NA,63,5,"1","plants",FALSE,1,1087,"plural","nothing"
"1350",NA,63,6,"1","shovels",FALSE,1,1896,"lexical","item"
"1351",NA,63,7,"1","bananas",TRUE,1,2114,"lexical","nothing"
"1352",NA,63,8,"1","buckets",TRUE,1,1288,"plural","item"
"1353",NA,63,9,"1","mittens",FALSE,1,1504,"plural","nothing"
"1354",NA,63,10,"1","purses",TRUE,1,3876,"plural","item"
"1355",NA,63,11,"1","cakes",TRUE,1,992,"plural","item"
"1356",NA,63,12,"1","dogs",FALSE,1,1381,"lexical","item"
"1357",NA,63,13,"1","kites",FALSE,1,1643,"lexical","item"
"1358",NA,63,14,"1","cookies",TRUE,1,1655,"lexical","nothing"
"1359",NA,63,15,"1","donuts",FALSE,1,1611,"plural","nothing"
"1360",NA,63,16,"1","flowers",TRUE,1,1398,"plural","item"
"1361",NA,63,17,"1","bows",TRUE,0,2222,"lexical","item"
"1362",NA,63,18,"1","cats",TRUE,1,1499,"lexical","nothing"
"1363",NA,63,19,"1","backpacks",FALSE,1,1695,"lexical","item"
"1364",NA,63,20,"1","presents",TRUE,1,1277,"lexical","nothing"
"1365",NA,63,21,"1","guitars",FALSE,1,1331,"lexical","item"
"1366",NA,63,22,"1","rainboots",FALSE,0,2709,"plural","item"
"1367",NA,63,23,"1","phones",TRUE,1,1124,"lexical","nothing"
"1368",NA,63,24,"1","daisies",FALSE,1,1734,"plural","nothing"
"1369",NA,63,25,"1","carrots",TRUE,1,1838,"plural","item"
"1370",NA,63,26,"1","apples",TRUE,1,1650,"lexical","nothing"
"1371",NA,63,27,"1","umbrellas",TRUE,1,1000,"lexical","nothing"
"1372",NA,63,28,"1","scissors",FALSE,1,1554,"plural","nothing"
"1373",NA,77,1,"1","apples",FALSE,1,2161,"plural","nothing"
"1374",NA,77,2,"1","phones",FALSE,1,1892,"lexical","item"
"1375",NA,77,3,"1","bananas",TRUE,1,1024,"plural","item"
"1376",NA,77,4,"1","cookies",FALSE,1,1580,"plural","nothing"
"1377",NA,77,5,"1","fish",TRUE,1,1056,"lexical","nothing"
"1378",NA,77,6,"1","bows",FALSE,1,1826,"lexical","item"
"1379",NA,77,7,"1","mittens",FALSE,1,1110,"lexical","item"
"1380",NA,77,8,"1","guitars",TRUE,1,1176,"plural","item"
"1381",NA,77,9,"1","umbrellas",FALSE,1,1259,"plural","nothing"
"1382",NA,77,10,"1","cars",TRUE,1,1287,"lexical","nothing"
"1383",NA,77,11,"1","cats",FALSE,1,1517,"plural","nothing"
"1384",NA,77,12,"1","backpacks",TRUE,1,1103,"plural","item"
"1385",NA,77,13,"1","daisies",TRUE,1,1297,"lexical","nothing"
"1386",NA,77,14,"1","plants",TRUE,1,1075,"plural","item"
"1387",NA,77,15,"1","kites",TRUE,1,1013,"lexical","nothing"
"1388",NA,77,16,"1","flowers",TRUE,1,1275,"lexical","nothing"
"1389",NA,77,17,"1","forks",TRUE,1,1048,"plural","item"
"1390",NA,77,18,"1","carrots",TRUE,1,1395,"lexical","nothing"
"1391",NA,77,19,"1","dogs",FALSE,1,1288,"lexical","item"
"1392",NA,77,20,"1","buckets",TRUE,1,1210,"lexical","nothing"
"1393",NA,77,21,"1","donuts",FALSE,1,3414,"plural","nothing"
"1394",NA,77,22,"1","presents",FALSE,1,1449,"lexical","item"
"1395",NA,77,23,"1","shovels",FALSE,1,1113,"plural","nothing"
"1396",NA,77,24,"1","pencils",TRUE,1,893,"plural","item"
"1397",NA,77,25,"1","cakes",TRUE,1,945,"plural","item"
"1398",NA,77,26,"1","scissors",FALSE,1,960,"lexical","item"
"1399",NA,77,27,"1","purses",FALSE,1,963,"lexical","item"
"1400",NA,77,28,"1","rainboots",FALSE,1,1149,"plural","nothing"
"1401",NA,67,1,"1","flowers",FALSE,1,2937,"lexical","item"
"1402",NA,67,2,"1","bows",FALSE,1,1958,"plural","nothing"
"1403",NA,67,3,"1","apples",TRUE,1,899,"plural","item"
"1404",NA,67,4,"1","backpacks",TRUE,1,1315,"plural","item"
"1405",NA,67,5,"1","umbrellas",TRUE,1,1243,"plural","item"
"1406",NA,67,6,"1","mittens",FALSE,1,983,"plural","nothing"
"1407",NA,67,7,"1","phones",TRUE,1,1323,"lexical","nothing"
"1408",NA,67,8,"1","plants",TRUE,1,1026,"plural","item"
"1409",NA,67,9,"1","kites",FALSE,1,921,"lexical","item"
"1410",NA,67,10,"1","bananas",FALSE,1,869,"lexical","item"
"1411",NA,67,11,"1","shovels",TRUE,1,1273,"lexical","nothing"
"1412",NA,67,12,"1","forks",FALSE,0,1034,"plural","item"
"1413",NA,67,13,"1","buckets",FALSE,1,1692,"plural","nothing"
"1414",NA,67,14,"1","guitars",TRUE,1,1271,"lexical","nothing"
"1415",NA,67,15,"1","cookies",FALSE,1,1495,"lexical","item"
"1416",NA,67,16,"1","daisies",FALSE,1,1337,"plural","nothing"
"1417",NA,67,17,"1","presents",TRUE,1,1069,"plural","item"
"1418",NA,67,18,"1","scissors",TRUE,1,1772,"plural","item"
"1419",NA,67,19,"1","cats",FALSE,1,994,"plural","nothing"
"1420",NA,67,20,"1","carrots",TRUE,1,1332,"lexical","nothing"
"1421",NA,67,21,"1","fish",TRUE,1,2915,"lexical","nothing"
"1422",NA,67,22,"1","purses",FALSE,1,1144,"lexical","item"
"1423",NA,67,23,"1","donuts",TRUE,1,970,"lexical","nothing"
"1424",NA,67,24,"1","cakes",FALSE,1,1079,"plural","nothing"
"1425",NA,67,25,"1","cars",TRUE,1,961,"lexical","nothing"
"1426",NA,67,26,"1","dogs",FALSE,1,920,"lexical","item"
"1427",NA,67,27,"1","pencils",FALSE,1,1145,"plural","nothing"
"1428",NA,67,28,"1","rainboots",TRUE,0,1352,"lexical","item"
"1429",NA,61,1,"1","cakes",TRUE,1,4063,"lexical","nothing"
"1430",NA,61,2,"1","bananas",FALSE,1,3766,"lexical","item"
"1431",NA,61,3,"1","presents",TRUE,1,4781,"plural","item"
"1432",NA,61,4,"1","rainboots",TRUE,1,3266,"lexical","nothing"
"1433",NA,61,5,"1","kites",TRUE,1,3375,"lexical","nothing"
"1434",NA,61,6,"1","cookies",TRUE,1,2953,"lexical","nothing"
"1435",NA,61,7,"1","cars",FALSE,1,5172,"lexical","item"
"1436",NA,61,8,"1","fish",TRUE,0,3375,"plural","nothing"
"1437",NA,61,9,"1","scissors",FALSE,1,3266,"plural","nothing"
"1438",NA,61,10,"1","plants",TRUE,1,2156,"plural","item"
"1439",NA,61,11,"1","cats",FALSE,1,3407,"plural","nothing"
"1440",NA,61,12,"1","carrots",FALSE,1,3640,"plural","nothing"
"1441",NA,61,13,"1","purses",FALSE,1,3609,"lexical","item"
"1442",NA,61,14,"1","shovels",FALSE,1,3094,"plural","nothing"
"1443",NA,61,15,"1","mittens",TRUE,1,2125,"plural","item"
"1444",NA,61,16,"1","flowers",TRUE,1,3531,"lexical","nothing"
"1445",NA,61,17,"1","donuts",FALSE,1,2688,"plural","nothing"
"1446",NA,61,18,"1","backpacks",TRUE,1,4843,"lexical","nothing"
"1447",NA,61,19,"1","umbrellas",TRUE,1,2406,"lexical","nothing"
"1448",NA,61,20,"1","dogs",FALSE,1,4281,"lexical","item"
"1449",NA,61,21,"1","daisies",TRUE,1,3281,"plural","item"
"1450",NA,61,22,"1","pencils",TRUE,1,1953,"plural","item"
"1451",NA,61,23,"1","apples",FALSE,1,1968,"lexical","item"
"1452",NA,61,24,"1","guitars",TRUE,1,2453,"plural","item"
"1453",NA,61,25,"1","phones",TRUE,1,2781,"plural","item"
"1454",NA,61,26,"1","bows",FALSE,1,3313,"plural","nothing"
"1455",NA,61,27,"1","forks",FALSE,1,2390,"lexical","item"
"1456",NA,61,28,"1","buckets",FALSE,1,3437,"lexical","item"
"1457",NA,3,1,"0","donuts",FALSE,1,1868,"lexical","item"
"1458",NA,3,2,"0","plants",TRUE,1,2376,"lexical","nothing"
"1459",NA,3,3,"0","scissors",TRUE,1,1773,"plural","item"
"1460",NA,3,4,"0","fish",TRUE,1,2074,"lexical","nothing"
"1461",NA,3,5,"0","dogs",FALSE,1,2008,"plural","nothing"
"1462",NA,3,6,"0","kites",FALSE,1,1896,"lexical","item"
"1463",NA,3,7,"0","guitars",TRUE,1,1129,"plural","item"
"1464",NA,3,8,"0","bananas",TRUE,1,1267,"lexical","nothing"
"1465",NA,3,9,"0","forks",TRUE,1,1246,"lexical","nothing"
"1466",NA,3,10,"0","shovels",TRUE,1,1100,"lexical","nothing"
"1467",NA,3,11,"0","mittens",FALSE,1,1465,"plural","nothing"
"1468",NA,3,12,"0","apples",TRUE,1,1827,"plural","item"
"1469",NA,3,13,"0","cookies",FALSE,1,1578,"plural","nothing"
"1470",NA,3,14,"0","umbrellas",FALSE,1,1052,"plural","nothing"
"1471",NA,3,15,"0","phones",FALSE,1,1412,"plural","nothing"
"1472",NA,3,16,"0","pencils",FALSE,1,1356,"lexical","item"
"1473",NA,3,17,"0","rainboots",FALSE,1,1770,"lexical","item"
"1474",NA,3,18,"0","carrots",TRUE,1,1017,"plural","item"
"1475",NA,3,19,"0","backpacks",FALSE,1,1443,"plural","nothing"
"1476",NA,3,20,"0","bows",TRUE,1,1536,"plural","item"
"1477",NA,3,21,"0","purses",FALSE,1,2974,"plural","nothing"
"1478",NA,3,22,"0","buckets",FALSE,1,1992,"lexical","item"
"1479",NA,3,23,"0","daisies",TRUE,1,1303,"plural","item"
"1480",NA,3,24,"0","cars",TRUE,1,1284,"plural","item"
"1481",NA,3,25,"0","presents",FALSE,1,1166,"lexical","item"
"1482",NA,3,26,"0","cakes",TRUE,1,1135,"lexical","nothing"
"1483",NA,3,27,"0","flowers",TRUE,1,1829,"lexical","nothing"
"1484",NA,3,28,"0","cats",FALSE,1,1068,"lexical","item"
"1485",NA,71,1,"0","umbrellas",FALSE,1,962,"plural","nothing"
"1486",NA,71,2,"0","buckets",FALSE,1,2319,"lexical","item"
"1487",NA,71,3,"0","cars",TRUE,1,1009,"plural","item"
"1488",NA,71,4,"0","forks",FALSE,1,1462,"lexical","item"
"1489",NA,71,5,"0","guitars",TRUE,1,1602,"lexical","nothing"
"1490",NA,71,6,"0","cakes",TRUE,1,1562,"plural","item"
"1491",NA,71,7,"0","backpacks",FALSE,1,1724,"lexical","item"
"1492",NA,71,8,"0","plants",FALSE,1,1230,"plural","nothing"
"1493",NA,71,9,"0","dogs",TRUE,1,1365,"lexical","nothing"
"1494",NA,71,10,"0","cookies",FALSE,1,1315,"lexical","item"
"1495",NA,71,11,"0","rainboots",TRUE,1,1232,"plural","item"
"1496",NA,71,12,"0","phones",FALSE,1,1025,"plural","nothing"
"1497",NA,71,13,"0","cats",TRUE,1,834,"plural","item"
"1498",NA,71,14,"0","carrots",FALSE,1,2362,"plural","nothing"
"1499",NA,71,15,"0","presents",FALSE,1,1573,"lexical","item"
"1500",NA,71,16,"0","daisies",TRUE,1,1395,"lexical","nothing"
"1501",NA,71,17,"0","bows",FALSE,1,2916,"lexical","item"
"1502",NA,71,18,"0","purses",FALSE,1,966,"plural","nothing"
"1503",NA,71,19,"0","flowers",TRUE,1,1102,"plural","item"
"1504",NA,71,20,"0","fish",FALSE,1,1836,"plural","nothing"
"1505",NA,71,21,"0","pencils",TRUE,1,1161,"lexical","nothing"
"1506",NA,71,22,"0","donuts",TRUE,1,1324,"lexical","nothing"
"1507",NA,71,23,"0","kites",TRUE,1,1451,"lexical","nothing"
"1508",NA,71,24,"0","mittens",TRUE,1,1225,"lexical","nothing"
"1509",NA,71,25,"0","apples",TRUE,1,1067,"plural","item"
"1510",NA,71,26,"0","bananas",FALSE,1,1363,"plural","nothing"
"1511",NA,71,27,"0","scissors",TRUE,0,1888,"lexical","item"
"1512",NA,71,28,"0","shovels",TRUE,1,2944,"plural","item"
"1513",NA,64,1,"0","presents",TRUE,1,1846,"plural","item"
"1514",NA,64,2,"0","daisies",TRUE,1,1048,"plural","item"
"1515",NA,64,3,"0","cookies",TRUE,1,1541,"lexical","nothing"
"1516",NA,64,4,"0","kites",FALSE,1,1588,"lexical","item"
"1517",NA,64,5,"0","apples",FALSE,1,1931,"lexical","item"
"1518",NA,64,6,"0","cakes",TRUE,1,1104,"plural","item"
"1519",NA,64,7,"0","backpacks",TRUE,1,1964,"lexical","nothing"
"1520",NA,64,8,"0","rainboots",FALSE,1,2600,"plural","nothing"
"1521",NA,64,9,"0","bows",TRUE,1,1770,"lexical","nothing"
"1522",NA,64,10,"0","buckets",FALSE,1,2479,"plural","nothing"
"1523",NA,64,11,"0","purses",TRUE,1,1149,"plural","item"
"1524",NA,64,12,"0","fish",TRUE,1,2126,"plural","item"
"1525",NA,64,13,"0","bananas",TRUE,1,1373,"lexical","nothing"
"1526",NA,64,14,"0","forks",TRUE,1,947,"plural","item"
"1527",NA,64,15,"0","phones",TRUE,1,828,"lexical","nothing"
"1528",NA,64,16,"0","mittens",TRUE,1,1393,"lexical","nothing"
"1529",NA,64,17,"0","umbrellas",FALSE,1,1584,"plural","nothing"
"1530",NA,64,18,"0","cats",FALSE,1,1664,"lexical","item"
"1531",NA,64,19,"0","cars",FALSE,0,3514,"lexical","nothing"
"1532",NA,64,20,"0","carrots",FALSE,1,1751,"plural","nothing"
"1533",NA,64,21,"0","guitars",TRUE,0,1839,"lexical","item"
"1534",NA,64,22,"0","scissors",FALSE,1,1203,"lexical","item"
"1535",NA,64,23,"0","plants",FALSE,1,1369,"lexical","item"
"1536",NA,64,24,"0","flowers",FALSE,1,1424,"plural","nothing"
"1537",NA,64,25,"0","pencils",TRUE,1,1453,"plural","item"
"1538",NA,64,26,"0","donuts",FALSE,1,1496,"lexical","item"
"1539",NA,64,27,"0","dogs",FALSE,1,1333,"plural","nothing"
"1540",NA,64,28,"0","shovels",FALSE,1,1413,"plural","nothing"
"1541",NA,58,1,"1","flowers",TRUE,1,2927,"plural","item"
"1542",NA,58,2,"1","rainboots",TRUE,1,2041,"lexical","nothing"
"1543",NA,58,3,"1","donuts",FALSE,1,1351,"lexical","item"
"1544",NA,58,4,"1","bananas",TRUE,1,1256,"plural","item"
"1545",NA,58,5,"1","forks",TRUE,1,1337,"plural","item"
"1546",NA,58,6,"1","kites",FALSE,1,1460,"plural","nothing"
"1547",NA,58,7,"1","dogs",FALSE,1,1143,"lexical","item"
"1548",NA,58,8,"1","apples",FALSE,1,2916,"lexical","item"
"1549",NA,58,9,"1","cats",TRUE,1,1333,"lexical","nothing"
"1550",NA,58,10,"1","phones",FALSE,1,1589,"lexical","item"
"1551",NA,58,11,"1","cakes",FALSE,1,1316,"plural","nothing"
"1552",NA,58,12,"1","pencils",TRUE,1,1016,"plural","item"
"1553",NA,58,13,"1","fish",FALSE,1,1289,"plural","nothing"
"1554",NA,58,14,"1","bows",FALSE,1,2952,"lexical","item"
"1555",NA,58,15,"1","presents",TRUE,1,1191,"plural","item"
"1556",NA,58,16,"1","mittens",FALSE,1,1128,"plural","nothing"
"1557",NA,58,17,"1","daisies",TRUE,1,1482,"plural","item"
"1558",NA,58,18,"1","carrots",FALSE,1,1366,"plural","nothing"
"1559",NA,58,19,"1","shovels",TRUE,1,1640,"lexical","nothing"
"1560",NA,58,20,"1","umbrellas",TRUE,1,1257,"plural","item"
"1561",NA,58,21,"1","purses",TRUE,1,1496,"lexical","nothing"
"1562",NA,58,22,"1","plants",FALSE,1,3496,"lexical","item"
"1563",NA,58,23,"1","guitars",TRUE,1,1323,"lexical","nothing"
"1564",NA,58,24,"1","cookies",TRUE,1,1271,"lexical","nothing"
"1565",NA,58,25,"1","buckets",TRUE,1,1080,"lexical","nothing"
"1566",NA,58,26,"1","cars",FALSE,1,1143,"plural","nothing"
"1567",NA,58,27,"1","backpacks",FALSE,1,2792,"lexical","item"
"1568",NA,58,28,"1","scissors",FALSE,1,1593,"plural","nothing"
"1569",NA,90,1,"1","mittens",FALSE,1,2785,"plural","nothing"
"1570",NA,90,2,"1","cars",TRUE,1,2515,"lexical","nothing"
"1571",NA,90,3,"1","buckets",FALSE,1,3089,"lexical","item"
"1572",NA,90,4,"1","presents",TRUE,1,7297,"lexical","nothing"
"1573",NA,90,5,"1","bananas",TRUE,1,3471,"plural","item"
"1574",NA,90,6,"1","forks",FALSE,1,5422,"lexical","item"
"1575",NA,90,7,"1","dogs",FALSE,1,6669,"lexical","item"
"1576",NA,90,8,"1","cookies",TRUE,1,2602,"lexical","nothing"
"1577",NA,90,9,"1","kites",FALSE,1,9157,"plural","nothing"
"1578",NA,90,10,"1","rainboots",TRUE,0,5904,"lexical","item"
"1579",NA,90,11,"1","cats",FALSE,1,8260,"plural","nothing"
"1580",NA,90,12,"1","purses",FALSE,1,15611,"plural","nothing"
"1581",NA,90,13,"1","bows",FALSE,1,26655,"lexical","item"
"1582",NA,90,14,"1","scissors",FALSE,1,3464,"plural","nothing"
"1583",NA,90,15,"1","flowers",FALSE,0,10090,"plural","item"
"1584",NA,90,16,"1","phones",TRUE,1,3966,"plural","item"
"1585",NA,90,17,"1","donuts",FALSE,1,8804,"plural","nothing"
"1586",NA,90,18,"1","daisies",FALSE,1,10450,"plural","nothing"
"1587",NA,90,19,"1","carrots",TRUE,1,10528,"lexical","nothing"
"1588",NA,90,20,"1","pencils",TRUE,1,14878,"lexical","nothing"
"1589",NA,90,21,"1","shovels",TRUE,1,4031,"plural","item"
"1590",NA,90,22,"1","backpacks",FALSE,1,11249,"lexical","item"
"1591",NA,90,23,"1","guitars",TRUE,1,3841,"plural","item"
"1592",NA,90,24,"1","plants",TRUE,1,22391,"plural","item"
"1593",NA,90,25,"1","apples",FALSE,0,7272,"lexical","nothing"
"1594",NA,90,26,"1","umbrellas",TRUE,1,9911,"plural","item"
"1595",NA,90,27,"1","fish",FALSE,0,4370,"lexical","nothing"
"1596",NA,90,28,"1","cakes",TRUE,0,2889,"lexical","item"
"1597",NA,29,1,"0","rainboots",FALSE,1,1906,"lexical","item"
"1598",NA,29,2,"0","dogs",FALSE,1,1161,"lexical","item"
"1599",NA,29,3,"0","plants",TRUE,1,1369,"plural","item"
"1600",NA,29,4,"0","bananas",FALSE,1,1529,"plural","nothing"
"1601",NA,29,5,"0","phones",FALSE,1,938,"plural","nothing"
"1602",NA,29,6,"0","fish",TRUE,1,902,"plural","item"
"1603",NA,29,7,"0","bows",FALSE,0,1569,"lexical","nothing"
"1604",NA,29,8,"0","buckets",FALSE,1,2129,"lexical","item"
"1605",NA,29,9,"0","backpacks",FALSE,0,1298,"lexical","nothing"
"1606",NA,29,10,"0","forks",FALSE,1,1288,"plural","nothing"
"1607",NA,29,11,"0","pencils",TRUE,1,1136,"plural","item"
"1608",NA,29,12,"0","carrots",TRUE,0,1550,"lexical","item"
"1609",NA,29,13,"0","cookies",FALSE,0,1029,"lexical","nothing"
"1610",NA,29,14,"0","purses",TRUE,1,1401,"plural","item"
"1611",NA,29,15,"0","umbrellas",FALSE,0,1198,"lexical","nothing"
"1612",NA,29,16,"0","donuts",TRUE,1,1611,"lexical","nothing"
"1613",NA,29,17,"0","cakes",FALSE,1,1307,"plural","nothing"
"1614",NA,29,18,"0","shovels",TRUE,1,1806,"plural","item"
"1615",NA,29,19,"0","flowers",TRUE,1,2034,"lexical","nothing"
"1616",NA,29,20,"0","scissors",FALSE,1,1646,"lexical","item"
"1617",NA,29,21,"0","apples",TRUE,1,1187,"plural","item"
"1618",NA,29,22,"0","mittens",TRUE,1,2072,"lexical","nothing"
"1619",NA,29,23,"0","guitars",TRUE,1,993,"plural","item"
"1620",NA,29,24,"0","kites",FALSE,1,1646,"plural","nothing"
"1621",NA,29,25,"0","daisies",FALSE,1,1132,"plural","nothing"
"1622",NA,29,26,"0","cats",FALSE,1,898,"plural","nothing"
"1623",NA,29,27,"0","presents",FALSE,1,2234,"lexical","item"
"1624",NA,29,28,"0","cars",FALSE,1,1306,"lexical","item"
"1625",NA,66,1,"0","dogs",TRUE,1,1165,"lexical","nothing"
"1626",NA,66,2,"0","shovels",FALSE,1,3013,"lexical","item"
"1627",NA,66,3,"0","forks",FALSE,1,1383,"lexical","item"
"1628",NA,66,4,"0","backpacks",TRUE,0,1558,"plural","nothing"
"1629",NA,66,5,"0","mittens",FALSE,1,2208,"plural","nothing"
"1630",NA,66,6,"0","carrots",TRUE,1,1556,"lexical","nothing"
"1631",NA,66,7,"0","cats",FALSE,1,3817,"plural","nothing"
"1632",NA,66,8,"0","buckets",TRUE,1,2358,"plural","item"
"1633",NA,66,9,"0","scissors",TRUE,1,1918,"plural","item"
"1634",NA,66,10,"0","guitars",TRUE,1,1358,"lexical","nothing"
"1635",NA,66,11,"0","cookies",TRUE,1,1591,"lexical","nothing"
"1636",NA,66,12,"0","bows",FALSE,1,1622,"lexical","item"
"1637",NA,66,13,"0","phones",FALSE,1,1535,"lexical","item"
"1638",NA,66,14,"0","flowers",TRUE,1,855,"lexical","nothing"
"1639",NA,66,15,"0","pencils",FALSE,1,2159,"plural","nothing"
"1640",NA,66,16,"0","purses",TRUE,1,940,"plural","item"
"1641",NA,66,17,"0","donuts",TRUE,1,1190,"lexical","nothing"
"1642",NA,66,18,"0","umbrellas",FALSE,1,1606,"lexical","item"
"1643",NA,66,19,"0","apples",TRUE,1,2654,"plural","item"
"1644",NA,66,20,"0","plants",TRUE,1,1118,"plural","item"
"1645",NA,66,21,"0","daisies",FALSE,1,1334,"lexical","item"
"1646",NA,66,22,"0","presents",FALSE,1,1838,"lexical","item"
"1647",NA,66,23,"0","cars",FALSE,1,1085,"plural","nothing"
"1648",NA,66,24,"0","cakes",TRUE,1,950,"plural","item"
"1649",NA,66,25,"0","kites",TRUE,1,774,"plural","item"
"1650",NA,66,26,"0","fish",TRUE,1,1740,"lexical","nothing"
"1651",NA,66,27,"0","rainboots",FALSE,1,1625,"plural","nothing"
"1652",NA,66,28,"0","bananas",FALSE,1,1871,"plural","nothing"
"1653",NA,5,1,"1","scissors",TRUE,1,3445,"plural","item"
"1654",NA,5,2,"1","cats",FALSE,1,1470,"lexical","item"
"1655",NA,5,3,"1","fish",TRUE,1,3015,"lexical","nothing"
"1656",NA,5,4,"1","buckets",TRUE,1,1663,"lexical","nothing"
"1657",NA,5,5,"1","shovels",TRUE,1,1520,"plural","item"
"1658",NA,5,6,"1","guitars",FALSE,1,1542,"plural","nothing"
"1659",NA,5,7,"1","mittens",TRUE,1,1780,"lexical","nothing"
"1660",NA,5,8,"1","forks",TRUE,1,1580,"plural","item"
"1661",NA,5,9,"1","pencils",FALSE,1,1180,"lexical","item"
"1662",NA,5,10,"1","apples",FALSE,1,1151,"lexical","item"
"1663",NA,5,11,"1","daisies",TRUE,1,1514,"lexical","nothing"
"1664",NA,5,12,"1","cookies",FALSE,1,1137,"lexical","item"
"1665",NA,5,13,"1","donuts",TRUE,1,1410,"plural","item"
"1666",NA,5,14,"1","cars",FALSE,1,1624,"plural","nothing"
"1667",NA,5,15,"1","bows",FALSE,1,1323,"plural","nothing"
"1668",NA,5,16,"1","presents",FALSE,1,1645,"plural","nothing"
"1669",NA,5,17,"1","backpacks",FALSE,1,1370,"lexical","item"
"1670",NA,5,18,"1","cakes",FALSE,1,1194,"lexical","item"
"1671",NA,5,19,"1","plants",TRUE,1,1427,"plural","item"
"1672",NA,5,20,"1","rainboots",TRUE,1,2003,"lexical","nothing"
"1673",NA,5,21,"1","dogs",FALSE,1,1369,"plural","nothing"
"1674",NA,5,22,"1","bananas",FALSE,1,1139,"plural","nothing"
"1675",NA,5,23,"1","umbrellas",FALSE,1,1372,"lexical","item"
"1676",NA,5,24,"1","flowers",TRUE,1,1458,"lexical","nothing"
"1677",NA,5,25,"1","carrots",TRUE,1,1125,"plural","item"
"1678",NA,5,26,"1","phones",TRUE,1,1404,"plural","item"
"1679",NA,5,27,"1","purses",TRUE,1,2099,"lexical","nothing"
"1680",NA,5,28,"1","kites",FALSE,1,1181,"plural","nothing"
"1681",NA,25,1,"0","bows",FALSE,0,1200,"lexical","nothing"
"1682",NA,25,2,"0","flowers",FALSE,1,2040,"plural","nothing"
"1683",NA,25,3,"0","apples",TRUE,1,2368,"lexical","nothing"
"1684",NA,25,4,"0","pencils",FALSE,1,1949,"lexical","item"
"1685",NA,25,5,"0","phones",TRUE,1,2858,"plural","item"
"1686",NA,25,6,"0","scissors",FALSE,1,1676,"lexical","item"
"1687",NA,25,7,"0","backpacks",FALSE,1,1788,"plural","nothing"
"1688",NA,25,8,"0","mittens",TRUE,1,1435,"plural","item"
"1689",NA,25,9,"0","cakes",TRUE,1,1805,"lexical","nothing"
"1690",NA,25,10,"0","cats",FALSE,1,1740,"plural","nothing"
"1691",NA,25,11,"0","daisies",FALSE,1,1852,"lexical","item"
"1692",NA,25,12,"0","dogs",TRUE,1,1029,"plural","item"
"1693",NA,25,13,"0","carrots",TRUE,1,1996,"plural","item"
"1694",NA,25,14,"0","presents",TRUE,1,1750,"lexical","nothing"
"1695",NA,25,15,"0","donuts",TRUE,1,1719,"plural","item"
"1696",NA,25,16,"0","shovels",TRUE,1,1738,"plural","item"
"1697",NA,25,17,"0","forks",FALSE,1,1549,"lexical","item"
"1698",NA,25,18,"0","fish",TRUE,1,2382,"lexical","nothing"
"1699",NA,25,19,"0","bananas",FALSE,1,1498,"lexical","item"
"1700",NA,25,20,"0","buckets",TRUE,0,4296,"plural","nothing"
"1701",NA,25,21,"0","cars",TRUE,1,1191,"plural","item"
"1702",NA,25,22,"0","cookies",FALSE,1,2238,"plural","nothing"
